# XDI/1.0 BlueSky/1.11.0 BMM/2023-2.1-py310-tiled
# Beamline.name: BMM (06BM) -- Beamline for Materials Measurement (NIST)
# Beamline.xray_source: NSLS-II three-pole wiggler
# Beamline.collimation: paraboloid mirror, 5 nm Rh on 30 nm Pt
# Beamline.focusing: not in use
# Beamline.harmonic_rejection: flat mirror, Si stripe, pitch = 7.0 mrad relative to beam
# Beamline.software: Bluesky 1.11.0, Ophyd 1.8.0, DataBroker 2.0.0b23, Python 3.10.8, 2023-2.1-py310-tiled
# Detector.I0: 10 cm N2
# Detector.I1: 25 cm N2
# Detector.I2: 25 cm N2
# Detector.fluorescence: SII Vortex ME4 (4-element silicon drift)
# Detector.deadtime_correction: Xspress3
# Element.symbol: Fe
# Element.edge: K
# Element.reference: Fe
# Element.reference_material: Fe foil
# Facility.name: NSLS-II
# Facility.energy: 3.0
# Facility.current: 399.3
# Facility.mode: top-off
# Facility.GUP: 315355
# Facility.SAF: 313563
# Facility.cycle: 2024-1
# Mono.name: Si(111)
# Mono.d_spacing: 3.1354173
# Mono.encoder_resolution: 0.0000050 deg/ct
# Mono.angle_offset: 16.0891518 deg
# Mono.scan_mode: pseudo channel cut
# Mono.scan_type: step
# Mono.direction: forward in energy
# Sample.name: Ca2Fe0.75Mn0.25FeSi5O14(OH)
# Sample.prep: PEG pellet
# Sample.x: 90.051 mm
# Sample.y: 81.516 mm
# Sample.SDD_position: 120.000 mm
# Scan.experimenters: XAS course 2024
# Scan.edge_energy: 7112.0
# Scan.start_time: 2024-03-21T11:03:04
# Scan.end_time: 2024-03-21T11:12:33
# Scan.transient_id: 5321
# Scan.uid: c6291ebd-93f6-4e93-9e5d-de5774268ee1
# Scan.hdf5file: 2024/03/21/c772f5e3-90d7-452f-9605_000000.h5
# Scan.plot_hint: (Fe1+Fe2+Fe3+Fe4)/I0  --  ($8+$9+$10+$11)/$5
# Column.1: energy eV
# Column.2: requested_energy eV
# Column.3: measurement_time seconds
# Column.4: xmu 
# Column.5: I0 nA
# Column.6: It nA
# Column.7: Ir nA
# Column.8: Fe1 
# Column.9: Fe2 
# Column.10: Fe3 
# Column.11: Fe4 
# ///////////
# Babingtonite, CM14452; Lane's Quarry, Westfield, Hampden County, Massachusetts
# -----------
# energy  requested_energy  measurement_time  xmu  I0  It  Ir  Fe1  Fe2  Fe3  Fe4
  6912.019  6912.000  1.000  5.981312  475.862469  0.787765  0.011794  761.070313  749.071415  662.070651  674.069337
  6922.008  6922.000  1.000  5.927439  475.463339  0.803096  0.011816  761.070313  786.074805  635.068214  636.066366
  6932.017  6932.000  1.000  5.848190  475.409088  0.818712  0.012416  682.064532  741.072051  669.073356  688.072695
  6942.023  6942.000  1.000  6.066893  475.314772  0.836967  0.012480  741.465377  786.074834  687.073964  669.069558
  6952.019  6952.000  1.000  6.150909  475.286437  0.854257  0.012790  734.215859  747.071868  710.078597  732.077244
  6962.016  6962.000  1.000  5.970856  475.270279  0.871830  0.013381  750.549186  739.071976  660.074853  688.074269
  6972.010  6972.000  1.000  6.234226  475.182066  0.891007  0.013713  743.158915  801.078686  707.077849  711.076912
  6982.005  6982.000  1.000  6.117483  475.083210  0.907828  0.013559  768.083270  719.072123  719.081598  700.076440
  6992.008  6992.000  1.000  6.225463  474.391594  0.931429  0.014136  737.071330  807.080607  719.080933  690.074589
  7002.005  7002.000  1.000  6.408848  474.237427  0.949497  0.014421  797.077018  795.078226  752.084986  695.075312
  7012.009  7012.000  1.000  6.582502  473.819569  0.968581  0.014894  807.667365  803.080609  716.082869  792.087635
  7022.012  7022.000  1.000  6.713118  473.603553  0.987252  0.015314  818.103214  834.082053  776.088377  751.082760
  7032.005  7032.000  1.000  6.865179  473.311420  1.006689  0.015402  818.103214  865.086411  788.091793  778.086154
  7042.010  7042.000  1.000  7.162493  473.071199  1.027613  0.015805  820.083167  932.097323  829.096683  807.091978
  7052.006  7052.000  1.000  7.634715  472.621931  1.047799  0.015848  920.036040  1009.104568  827.096926  852.096000
  7062.003  7062.000  1.000  7.930981  468.720654  1.059712  0.016287  936.097740  1005.106855  844.101008  932.109197
  7072.005  7072.000  1.000  9.156552  471.640108  1.086880  0.016642  1112.231003  1182.126295  979.118939  1045.121104
  7082.004  7082.000  1.000  10.529816  471.547452  1.104600  0.017080  1231.869223  1342.144935  1187.149284  1204.144242
  7084.001  7084.000  1.000  10.946640  469.709621  1.105205  0.016730  1359.295527  1322.144015  1245.156750  1215.145909
  7086.001  7086.000  1.000  11.119503  471.027241  1.113135  0.017136  1352.142448  1449.156418  1250.149534  1186.140217
  7087.997  7088.000  1.000  11.619466  471.209811  1.115820  0.017078  1419.731043  1494.165759  1298.159674  1263.149889
  7090.008  7090.000  1.000  12.422213  471.096996  1.121502  0.017276  1484.536349  1535.173359  1414.182642  1418.174968
  7092.003  7092.000  1.000  12.780810  470.995441  1.125269  0.017135  1573.170925  1568.175244  1455.183536  1423.173396
  7093.999  7094.000  1.000  13.887580  470.923289  1.128638  0.017214  1683.409089  1864.209747  1428.175309  1564.190538
  7096.005  7096.000  1.000  14.325261  470.762375  1.132511  0.017243  1731.189652  1786.199518  1626.209456  1600.195324
  7098.001  7098.000  1.000  15.373636  470.768215  1.134732  0.016969  1846.771226  1931.218204  1737.219563  1722.210218
  7100.003  7100.000  1.000  16.433436  470.804639  1.134917  0.017241  1937.224156  1998.229372  1904.245434  1897.238721
  7102.004  7102.000  1.000  17.842630  470.689175  1.136833  0.016875  2176.565774  2166.247385  1997.261742  2058.257849
  7102.284  7102.300  1.000  17.949566  470.652102  1.138380  0.017080  2251.238942  2217.251963  1935.253325  2044.256606
  7102.579  7102.600  1.000  18.239529  470.626855  1.139188  0.017002  2251.238942  2217.251963  2073.269578  2042.251912
  7102.883  7102.900  1.000  18.729458  470.505628  1.139193  0.017058  2285.500579  2330.272234  2046.271285  2150.271204
  7103.188  7103.200  1.000  18.732968  470.374671  1.139323  0.017093  2265.694845  2330.272234  2046.271285  2169.275390
  7103.484  7103.500  1.000  19.022673  470.546562  1.138790  0.016893  2268.223830  2422.281984  2181.286022  2079.261624
  7103.783  7103.800  1.000  19.269847  470.430747  1.140091  0.016980  2423.294308  2430.285164  2129.283967  2082.265307
  7104.087  7104.100  1.000  19.749098  470.409527  1.138910  0.017232  2393.300805  2505.292775  2186.289493  2205.280816
  7104.384  7104.400  1.000  19.997502  470.331491  1.140564  0.017303  2417.576110  2498.292862  2303.306628  2186.279407
  7104.690  7104.700  1.000  20.329313  470.344942  1.141629  0.016831  2440.907588  2564.296657  2246.294546  2310.290780
  7104.988  7105.000  1.000  20.557303  470.358972  1.141762  0.017112  2507.396802  2540.303789  2297.311373  2324.299923
  7105.285  7105.300  1.000  21.310166  470.276858  1.141462  0.017080  2586.731177  2668.320065  2357.315027  2409.311645
  7105.594  7105.600  1.000  21.509546  470.266582  1.141314  0.016689  2579.247104  2624.313441  2494.344314  2417.315944
  7105.893  7105.900  1.000  21.626243  470.282658  1.140018  0.016706  2636.489016  2590.308927  2430.325482  2513.323591
  7106.195  7106.200  1.000  22.202629  470.212509  1.141379  0.016586  2690.962052  2724.327158  2551.344688  2473.320172
  7106.493  7106.500  1.000  22.766417  470.343019  1.140877  0.016662  2851.016792  2777.330190  2532.347661  2547.330453
  7106.795  7106.800  1.000  23.155207  470.208280  1.141785  0.016520  2883.739958  2925.352542  2542.347635  2536.329946
  7107.101  7107.100  1.000  23.239012  470.101617  1.143312  0.016656  2763.632850  2910.357283  2615.357291  2635.349547
  7107.401  7107.400  1.000  24.316788  470.186721  1.141619  0.016418  2961.328272  3083.372240  2733.380522  2655.349744
  7107.703  7107.700  1.000  24.875012  470.082258  1.141325  0.016569  2979.173801  3204.384646  2739.377008  2770.366278
  7107.994  7108.000  1.000  25.588072  469.924622  1.143239  0.016333  3192.304795  3192.391188  2805.392125  2834.376867
  7108.294  7108.300  1.000  25.995717  469.983796  1.141406  0.016239  3129.362242  3180.390950  2953.414993  2954.397515
  7108.602  7108.600  1.000  26.180727  469.915255  1.142310  0.016288  3161.509850  3228.400160  3037.425924  2875.387136
  7108.896  7108.900  1.000  26.782910  469.880287  1.141321  0.016187  3120.508932  3373.419443  2994.417797  3096.415114
  7109.200  7109.200  1.000  28.169756  469.912325  1.139585  0.016113  3388.007340  3447.425283  3243.457734  3158.425086
  7109.496  7109.500  1.000  28.343446  469.936522  1.137337  0.015601  3309.287065  3610.450945  3193.449799  3206.432829
  7109.796  7109.800  1.000  30.107370  469.866965  1.138633  0.015148  3607.020541  3819.488417  3325.481240  3394.468353
  7110.098  7110.100  1.000  31.625541  469.699100  1.138757  0.015055  3685.972063  4005.512706  3547.504856  3615.498307
  7110.398  7110.400  1.000  32.969978  469.736625  1.135607  0.014742  4096.624812  4061.529827  3689.542226  3639.509396
  7110.704  7110.700  1.000  35.658565  469.715531  1.134376  0.014065  4386.639711  4437.589034  3955.583549  3969.569387
  7111.005  7111.000  1.000  37.956923  469.587019  1.131557  0.013042  4697.182941  4717.641540  4184.634863  4224.619172
  7111.311  7111.300  1.000  42.365601  469.635531  1.126688  0.011532  5145.189261  5277.741523  4649.731521  4823.729410
  7111.599  7111.600  1.000  46.263575  469.570861  1.121744  0.010376  5613.599993  5720.811998  5182.824849  5206.789937
  7111.901  7111.900  1.000  48.600119  469.509383  1.118004  0.009483  5935.595304  5970.871075  5406.883217  5504.862408
  7112.199  7112.200  1.000  50.874667  469.382723  1.115103  0.008340  6096.944333  6359.933161  5633.901356  5788.910888
  7112.497  7112.500  1.000  54.047266  469.142793  1.113400  0.007693  6540.924539  6738.005816  5994.987302  6081.967492
  7112.795  7112.800  1.000  57.582385  469.113830  1.107591  0.007160  6890.436061  7183.100451  6431.091600  6508.065048
  7113.096  7113.100  1.000  61.641949  469.005162  1.102647  0.006633  7439.836450  7603.185527  6848.190904  7019.179225
  7113.398  7113.400  1.000  65.076919  468.991790  1.097550  0.006240  7715.702377  8223.321077  7333.287912  7248.229394
  7113.701  7113.700  1.000  67.638396  468.898992  1.092665  0.005769  8120.541914  8470.369023  7521.345572  7603.319179
  7114.005  7114.000  1.000  68.746947  468.744504  1.092862  0.005461  8120.541914  8470.369023  7774.437400  7859.405069
  7114.299  7114.300  1.000  69.714397  468.900078  1.091458  0.005432  8309.832316  8741.449769  7803.418177  7834.385809
  7114.604  7114.600  1.000  70.743421  468.868831  1.089847  0.005330  8612.075043  8806.463194  7927.455980  7823.390905
  7114.904  7114.900  1.000  70.069510  468.788010  1.091411  0.004809  8497.478206  8744.451907  7815.429348  7790.386498
  7115.201  7115.200  1.000  68.904728  468.877895  1.092238  0.004595  8188.747372  8683.406712  7725.404192  7710.345555
  7115.501  7115.500  1.000  66.988501  468.749634  1.095933  0.004680  8151.869532  8366.344890  7425.336843  7457.284148
  7115.797  7115.800  1.000  66.490900  468.779202  1.097004  0.004591  7948.582663  8407.361888  7301.301187  7512.305360
  7116.098  7116.100  1.000  68.331863  468.620407  1.097822  0.004472  8323.636305  8492.379587  7554.356105  7651.333440
  7116.394  7116.400  1.000  71.015713  468.706354  1.094336  0.004525  8428.144689  8835.468565  7946.470598  8075.432081
  7116.695  7116.700  1.000  75.691683  468.558870  1.092453  0.004681  9085.287375  9513.616126  8381.565785  8485.540236
  7116.998  7117.000  1.000  81.467608  468.603018  1.086312  0.004216  9840.758825  10141.763272  9045.737691  9147.707424
  7117.298  7117.300  1.000  89.198628  468.537337  1.078378  0.004280  10728.800197  11115.076713  9951.029891  9997.980730
  7117.601  7117.600  1.000  97.103971  468.527876  1.065760  0.004032  10728.800197  12306.406672  11257.400928  11203.309708
  7117.904  7117.900  1.000  113.743813  468.500985  1.050840  0.003774  13708.545521  14115.896758  12661.841958  12802.804302
  7118.203  7118.200  1.000  132.181537  468.477908  1.030897  0.003059  15921.366795  16299.646027  14802.573721  14900.543545
  7118.506  7118.500  1.000  155.794974  468.432910  1.005838  0.003091  18668.506569  19345.770667  17504.656032  17460.559837
  7118.802  7118.800  1.000  182.498490  468.295940  0.976189  0.002655  21652.100240  22760.238581  20514.044992  20536.917985
  7119.105  7119.100  1.000  214.807768  468.334048  0.939757  0.002462  25703.276082  26609.061215  23967.723919  24321.730074
  7119.402  7119.400  1.000  249.361915  468.220121  0.902330  0.002180  29862.774741  31027.625022  27846.951134  28018.915220
  7119.703  7119.700  1.000  284.740653  468.237357  0.861129  0.001792  34072.929542  35174.166130  32054.677257  32024.437924
  7119.997  7120.000  1.000  322.902705  468.109397  0.818391  0.001481  38695.166620  39939.659331  35954.290052  36564.674403
  7120.304  7120.300  1.000  353.722048  468.015302  0.774148  0.001314  38695.166620  45094.662938  40974.363511  40783.138048
  7120.597  7120.600  1.000  402.514901  468.106211  0.731449  0.000895  48107.969706  50061.779329  45062.965274  45187.010981
  7120.902  7120.900  1.000  438.317927  469.342741  0.694644  0.000919  52688.253551  54492.083787  49099.954719  49441.044941
  7121.205  7121.200  1.000  470.827967  469.242085  0.659241  0.000965  56089.253711  58655.382978  52859.589925  53328.070349
  7121.506  7121.500  1.000  506.416697  469.328456  0.627154  0.000625  60815.110635  62879.089008  56760.229039  57221.337846
  7121.807  7121.800  1.000  534.315532  469.270801  0.597728  0.000571  64052.909245  65865.875877  60207.694081  60612.198769
  7122.109  7122.100  1.000  565.173023  469.223665  0.569553  0.000614  67605.297371  69955.572923  63545.172704  64086.514056
  7122.401  7122.400  1.000  594.333551  469.181389  0.542164  0.000476  71004.565904  73771.464818  66935.659988  67138.550164
  7122.702  7122.700  1.000  632.289816  468.940836  0.514039  0.000379  75748.161576  78407.064352  71117.729586  71233.559764
  7122.997  7123.000  1.000  667.699500  469.191218  0.484063  0.000549  80152.023391  82448.811257  75281.542210  75396.364426
  7123.300  7123.300  1.000  713.858627  468.985059  0.451845  0.000122  85180.917394  88267.606727  80591.135614  80749.370386
  7123.595  7123.600  1.000  756.522710  468.965838  0.417480  0.000217  90425.010597  93942.670235  84933.390167  85482.235250
  7123.903  7123.900  1.000  804.800580  468.892791  0.382925  -0.000011  96086.465811  99691.200653  90945.094138  90642.429112
  7124.202  7124.200  1.000  840.618075  468.826555  0.350326  0.000144  101803.740022  105283.012659  90945.094138  96072.229091
  7124.505  7124.500  1.000  898.622693  468.803051  0.318023  0.000185  106795.639055  110773.032803  101956.395153  101751.993071
  7124.802  7124.800  1.000  942.407368  468.666869  0.289769  -0.000013  112279.100585  116040.302975  106364.603014  106991.104008
  7125.106  7125.100  1.000  980.683052  468.608710  0.264368  -0.000071  116627.881542  120468.990128  111421.954494  111037.794317
  7125.403  7125.400  1.000  1007.577963  468.522985  0.245050  0.000197  120031.033564  123875.637856  113842.089512  114324.673790
  7125.709  7125.700  1.000  1029.057761  468.366424  0.231032  -0.000419  122032.360944  126926.291159  116557.672458  116459.779460
  7126.002  7126.000  1.000  1043.801329  468.359532  0.222751  -0.000007  124177.895262  128435.425175  118156.024220  118104.957695
  7126.303  7126.300  1.000  1049.664691  468.321496  0.218121  -0.000003  124868.252589  129019.856275  118650.357074  119042.072624
  7126.598  7126.600  1.000  1053.707789  468.329205  0.214914  -0.000108  124713.906958  129551.925501  119663.460412  119552.837622
  7126.895  7126.900  1.000  1064.301557  468.213531  0.211534  -0.000310  127044.349569  130991.106265  119783.045864  120501.889009
  7127.201  7127.200  1.000  1077.099763  468.093211  0.207212  -0.000024  127689.838954  132034.750658  122247.610980  122210.885935
  7127.501  7127.500  1.000  1093.972097  468.032347  0.200548  -0.000255  129595.992038  134322.565995  124154.579064  123941.190993
  7127.802  7127.800  1.000  1109.447966  467.970255  0.192717  -0.000477  132312.330912  135898.092301  125282.080471  125696.144306
  7128.106  7128.100  1.000  1126.492921  467.946032  0.184482  -0.000070  133892.843463  138257.763638  127277.838103  127709.447769
  7128.408  7128.400  1.000  1144.348188  467.930648  0.177018  -0.000391  136180.619916  140384.125353  129477.113953  129433.730254
  7128.707  7128.700  1.000  1163.179490  467.829785  0.170697  -0.000000  137531.581293  142471.008368  132068.621590  132098.799544
  7129.000  7129.000  1.000  1167.786952  467.796812  0.165474  -0.000288  137531.581293  143585.547567  132560.257554  132609.626996
  7129.306  7129.300  1.000  1179.429776  467.674934  0.161367  -0.000275  140383.383427  144365.066894  133623.551599  133217.741242
  7129.600  7129.600  1.000  1183.995371  467.526383  0.158222  -0.000432  140165.555004  144798.126311  134200.155795  134385.236272
  7129.903  7129.900  1.000  1189.657592  467.529267  0.156103  -0.000066  141092.631568  145726.610602  134588.821566  134791.677757
  7130.201  7130.200  1.000  1190.374805  467.480636  0.155210  -0.000214  141130.986578  145770.852251  134403.948145  135171.383850
  7130.501  7130.500  1.000  1187.564327  467.386450  0.155582  -0.000301  140747.604214  145181.132581  134284.561173  134838.177478
  7130.803  7130.800  1.000  1182.512816  467.160075  0.157362  -0.000072  140200.662519  145322.551473  133867.691076  133031.870732
  7131.102  7131.100  1.000  1172.769348  467.209147  0.160375  -0.000082  138388.207171  144597.955594  132111.625450  132830.778305
  7131.400  7131.400  1.000  1161.409029  467.122011  0.164464  0.000073  137264.265460  142867.729835  131535.922512  130851.803965
  7131.704  7131.700  1.000  1153.081783  466.978160  0.168909  -0.000356  135931.598249  141684.497364  130258.389819  130589.524248
  7132.006  7132.000  1.000  1143.473487  466.952494  0.173057  -0.000228  135428.577957  140280.207462  129175.209674  129063.800881
  7132.299  7132.300  1.000  1133.992285  466.921281  0.176585  -0.000230  134194.032812  138499.349490  128156.865002  128634.883018
  7132.601  7132.600  1.000  1131.450567  466.884550  0.179750  -0.000225  134159.672975  138499.349490  127868.282404  127729.484590
  7132.901  7132.900  1.000  1125.493509  466.827400  0.182953  0.000044  132519.995641  138051.578300  127115.997054  127723.637323
  7133.195  7133.200  1.000  1115.024536  466.831061  0.186375  -0.000181  132363.406808  136653.638678  126116.534158  125394.506910
  7133.501  7133.500  1.000  1104.928092  466.808191  0.190050  0.000041  130628.828072  135440.260256  124800.543975  124919.851980
  7133.801  7133.800  1.000  1096.719847  466.795753  0.194054  -0.000183  129891.481568  134307.232061  123958.831765  123786.621147
  7134.101  7134.100  1.000  1085.399551  466.795184  0.198697  -0.000189  128367.361894  132917.792521  122693.596004  122680.532476
  7134.399  7134.400  1.000  1079.372943  466.825677  0.203089  -0.000065  127631.311712  132440.615701  121761.983788  122045.093729
  7134.703  7134.700  1.000  1069.281209  466.789915  0.207509  -0.000197  126240.059234  131232.678353  120643.946220  121013.000929
  7135.003  7135.000  1.000  1061.800437  466.635873  0.211606  -0.000199  125836.455326  130305.408746  120036.884902  119295.424794
  7135.304  7135.300  1.000  1058.442402  466.715349  0.215081  -0.000218  125836.455326  129732.856681  119198.275213  119223.727570
  7135.602  7135.600  1.000  1053.167654  466.610889  0.217622  -0.000058  124678.327619  129211.275260  118534.959322  118994.933066
  7135.897  7135.900  1.000  1050.792567  466.562873  0.219975  -0.000348  124303.542806  128646.135312  118469.618956  118841.501979
  7136.195  7136.200  1.000  1047.243921  466.558076  0.221238  -0.000228  124139.557347  128031.521859  118059.606409  118369.423495
  7136.500  7136.500  1.000  1051.285345  466.574445  0.222903  -0.000331  124689.722661  128369.386017  118506.029952  118937.738475
  7136.796  7136.800  1.000  1047.537465  466.516926  0.224061  -0.000177  123865.160659  128740.271428  118355.352063  117733.174222
  7136.995  7137.000  1.000  1043.671334  466.637142  0.224365  -0.000049  124262.813727  127909.862393  117292.252743  117550.879383
  7138.001  7137.990  1.000  1037.949579  466.557931  0.228595  -0.000164  122780.906206  126753.273044  117411.571499  117317.857643
  7139.004  7138.990  1.000  1030.038255  466.469840  0.234055  -0.000118  121597.120873  126421.376991  116421.099535  116042.182246
  7140.020  7140.010  1.000  1023.830738  466.322247  0.240324  -0.000208  121597.120873  126421.376991  114970.680825  114445.872033
  7141.076  7141.060  1.000  1011.647167  466.521807  0.244377  -0.000188  119515.615005  124106.259296  113997.182602  114336.407178
  7142.127  7142.120  1.000  1004.571308  466.444421  0.248618  -0.000167  118668.363627  123427.423618  113098.960014  113381.935441
  7143.213  7143.200  1.000  994.167706  466.482208  0.254534  -0.000118  117664.807200  122385.034523  112070.870162  111640.834902
  7144.317  7144.300  1.000  980.024295  466.426149  0.263005  -0.000185  116149.416848  120652.070185  110506.608875  109800.861435
  7145.438  7145.420  1.000  966.957548  466.449169  0.272370  -0.000073  114070.822297  118476.760543  109276.989181  109211.972397
  7146.580  7146.560  1.000  949.465812  466.442022  0.282938  -0.000298  112908.925513  116099.150627  106850.363970  107012.312758
  7147.737  7147.710  1.000  930.468868  466.466793  0.295226  -0.000158  110486.105712  114177.576749  104249.963150  105119.183538
  7148.899  7148.890  1.000  905.652748  466.325105  0.309847  -0.000097  107264.560516  111150.515597  102131.291254  101782.245663
  7150.082  7150.080  1.000  888.046248  466.245405  0.324831  -0.000185  105257.670865  109213.557580  100085.539549  99490.714715
  7151.306  7151.300  1.000  868.528274  466.346039  0.337723  -0.000122  102539.547041  107138.634676  97878.599903  97477.938410
  7152.536  7152.530  1.000  854.526019  466.263063  0.348744  -0.000168  101556.625916  105398.455203  95344.524883  96134.312816
  7153.782  7153.780  1.000  844.459754  466.121967  0.358553  -0.000074  100174.719349  104045.121320  94568.658549  94832.742621
  7155.052  7155.050  1.000  838.743349  466.052986  0.366525  -0.000048  100174.719349  103137.790096  93864.774853  93721.558213
  7156.355  7156.340  1.000  833.721550  466.135868  0.370847  -0.000121  98832.535551  102659.166901  93485.273996  93650.541858
  7157.650  7157.650  1.000  836.292931  466.133801  0.370911  -0.000198  99298.516665  102774.328574  93691.224886  94060.332253
  7158.989  7158.980  1.000  845.621079  465.898442  0.367289  -0.000070  100026.610238  104289.990636  94906.308492  94750.633579
  7160.342  7160.330  1.000  855.355177  465.929184  0.359732  -0.000038  101313.209352  105337.331267  95933.282278  95951.116298
  7161.706  7161.700  1.000  872.690745  465.694945  0.349919  -0.000218  102872.788480  107405.550334  98261.687114  97867.642805
  7163.081  7163.080  1.000  889.537707  465.574203  0.338309  0.000017  105421.567110  109271.816647  99662.845729  99789.579822
  7164.500  7164.490  1.000  912.337395  465.458447  0.326389  0.000055  108015.518064  111414.542506  102252.015169  102973.071682
  7165.916  7165.910  1.000  925.800639  465.337741  0.316507  -0.000085  109829.044454  111414.542506  104687.505803  104878.884802
  7167.361  7167.350  1.000  943.658633  465.200344  0.308267  -0.000050  111663.819787  115559.675262  105765.053367  106001.772001
  7168.817  7168.810  1.000  953.983603  465.087579  0.302258  0.000055  112775.436697  116655.112608  107169.498910  107085.876593
  7170.293  7170.290  1.000  963.591640  464.951729  0.297592  0.000005  113954.283117  117960.060391  108033.963947  108075.291420
  7171.797  7171.790  1.000  978.120684  464.930002  0.292599  -0.000392  115524.657178  119499.076354  110000.927734  109732.990486
  7173.322  7173.310  1.000  982.221815  464.813843  0.289613  -0.000100  115922.739361  119665.506408  110344.818245  110617.232070
  7174.855  7174.850  1.000  983.745348  464.646664  0.287377  -0.000332  116466.437703  119665.506408  110344.818245  110617.232070
  7176.424  7176.410  1.000  992.556834  464.608124  0.285784  -0.000288  116865.508107  121373.741358  111465.305447  111445.414034
  7177.991  7177.980  1.000  991.782135  464.541820  0.287400  -0.000016  116930.413867  120891.137784  111655.203495  111247.522460
  7179.589  7179.580  1.000  991.993595  464.389836  0.290044  -0.000106  117324.780462  120951.825636  111528.824784  110866.311952
  7181.199  7181.190  1.000  992.598126  464.284945  0.291845  -0.000068  117010.541167  121275.770732  110898.690656  111663.363391
  7182.837  7182.830  1.000  992.532300  464.273658  0.292537  0.000147  117138.596793  120734.959966  111694.491883  111238.552744
  7184.490  7184.480  1.000  994.458824  464.088330  0.292726  -0.000109  117235.902031  121377.455723  111810.253676  111093.123126
  7186.157  7186.150  1.000  995.418611  463.962175  0.293108  0.000132  117768.184537  121290.306918  111542.902988  111235.189973
  7187.849  7187.840  1.000  998.154186  463.853701  0.293639  -0.000358  117586.178937  121837.329880  111523.453990  112050.550225
  7189.558  7189.550  1.000  995.879958  455.986311  0.289366  -0.000017  115129.609926  119967.080757  109620.924823  109390.013020
  7191.293  7191.280  1.000  995.390697  463.219643  0.297106  -0.000000  116898.323172  121139.560309  111035.721203  112010.918807
  7193.038  7193.030  1.000  987.419725  463.413024  0.301072  -0.000376  115900.350064  120519.470794  110352.243088  110811.096287
  7194.806  7194.790  1.000  983.177371  463.994881  0.306288  0.000089  116449.763460  119590.015418  109765.276094  110384.212561
  7196.582  7196.580  1.000  979.506432  464.795162  0.312054  -0.000163  115544.703282  119143.997336  110424.727746  110156.422663
  7198.391  7198.380  1.000  974.775266  464.637608  0.316311  -0.000206  114740.535911  119326.030422  109612.689587  109237.992318
  7200.223  7200.210  1.000  972.562980  464.432156  0.320258  -0.000209  114740.535911  118506.988932  109202.682359  109239.315132
  7202.063  7202.050  1.000  967.889695  464.357806  0.323739  -0.000198  113938.540317  117944.751439  108401.473644  109162.369569
  7203.924  7203.910  1.000  963.661099  464.275132  0.326931  -0.000086  113806.429853  117889.200084  107304.534265  108403.720001
  7205.803  7205.790  1.000  963.197074  463.952077  0.330902  0.000055  113362.531164  117887.415666  107916.836052  107710.500347
  7207.703  7207.690  1.000  962.212794  463.921754  0.333715  -0.000015  113389.326356  117906.831639  107509.720766  107585.568473
  7209.622  7209.610  1.000  958.985061  463.788616  0.337229  -0.000238  112983.049503  116960.167857  107831.084783  106992.051909
  7211.562  7211.550  1.000  960.043276  463.397078  0.340735  -0.000233  112983.049503  116798.970610  107584.069259  107515.159578
  7213.521  7213.510  1.000  956.906858  463.219862  0.343052  -0.000123  112657.644393  116798.970610  107102.687347  106698.960736
  7215.492  7215.480  1.000  959.521050  463.197579  0.344321  0.000152  113304.184929  116863.877004  107355.795362  106923.970044
  7217.492  7217.480  1.000  959.588251  463.107342  0.345285  -0.000219  113393.422168  116784.715827  106690.325875  107523.900290
  7219.505  7219.490  1.000  957.639681  463.073608  0.345939  -0.000012  112855.699596  116813.653744  106797.631331  106990.677654
  7221.528  7221.520  1.000  963.328116  462.840310  0.347225  -0.000077  113440.168444  116813.653744  107736.174775  107877.086616
  7223.596  7223.580  1.000  964.423685  462.491710  0.347684  -0.000026  113440.168444  117187.246307  107657.295493  107753.248726
  7225.664  7225.650  1.000  967.657683  461.097543  0.347794  -0.000232  113598.916681  117311.113924  107509.915841  107764.633489
  7227.748  7227.740  1.000  969.560987  462.467078  0.350173  -0.000265  114304.136795  117760.982636  108166.034331  108158.883150
  7229.866  7229.850  1.000  971.722633  462.551807  0.350907  -0.000258  114672.306785  118121.559075  108289.389039  108388.805281
  7231.993  7231.980  1.000  973.412468  462.364464  0.351682  -0.000111  114512.204353  118062.257511  109221.703952  108275.167963
  7234.127  7234.120  1.000  975.598797  462.224325  0.352168  -0.000085  114398.991874  118926.683602  108943.037840  108676.782506
  7236.303  7236.290  1.000  977.161512  462.116892  0.352071  -0.000055  114208.537729  118799.024930  109767.749480  108787.528739
  7238.487  7238.480  1.000  981.403237  462.023787  0.352044  -0.000094  115253.374964  118944.721736  109608.912835  109624.630218
  7240.686  7240.680  1.000  985.918727  461.756465  0.352162  0.000247  115580.912656  119325.472806  109924.764299  110423.196723
  7242.913  7242.900  1.000  989.043629  461.620837  0.350982  0.000121  116010.478490  120164.263670  110354.401374  110034.004586
  7245.161  7245.150  1.000  996.258501  461.426093  0.351170  0.000082  116559.162518  121051.565460  111071.223414  111017.716242
  7247.417  7247.410  1.000  994.778353  452.922808  0.345499  -0.000165  114378.793724  118225.087017  109009.634468  108944.289793
  7249.707  7249.690  1.000  995.567701  460.735929  0.351777  -0.000142  116631.663640  120090.277443  111157.395598  110814.472683
  7252.002  7251.990  1.000  996.017972  460.649993  0.354015  0.000122  116503.785777  120509.202060  110552.470851  111250.213835
  7254.318  7254.310  1.000  998.490282  459.770732  0.356992  -0.000069  116503.785777  121189.770415  110631.377653  110751.673486
  7256.661  7256.650  1.000  995.783426  460.696649  0.359332  0.000023  116398.874204  121133.302871  110575.661235  110646.249150
  7259.012  7259.000  1.000  999.385330  460.388953  0.361002  -0.000098  116493.583425  121333.677349  111315.735628  110962.969598
  7261.383  7261.380  1.000  998.330126  458.824487  0.361794  0.000101  116992.364622  120297.802735  110111.951973  110656.188383
  7263.775  7263.770  1.000  1028.447051  420.957023  0.348029  -0.000166  116992.364622  111483.708375  102079.619508  102376.316804
  7266.199  7266.190  1.000  1005.368636  459.677364  0.365418  -0.000356  117473.799386  121314.628238  111891.194047  111465.583029
  7268.626  7268.620  1.000  1007.159552  461.341657  0.367954  -0.000108  117535.784414  122199.888827  112180.739141  112728.244215
  7271.070  7271.070  1.000  1007.730366  460.980309  0.368838  0.000018  118530.723457  121583.982594  111938.945153  112490.204018
  7273.557  7273.550  1.000  1010.573319  458.342777  0.367373  -0.000000  117527.128752  122027.241611  112006.697771  111627.912898
  7276.045  7276.040  1.000  1007.487546  461.232372  0.373418  -0.000390  118266.491618  122337.409487  111830.154015  112251.815866
  7278.554  7278.550  1.000  1010.013260  461.068701  0.374960  -0.000101  118051.045662  122186.091666  112843.969712  112604.394683
  7281.080  7281.070  1.000  1011.273092  458.843975  0.377133  -0.000184  118067.281110  121938.423079  112478.351135  111532.510264
  7283.632  7283.620  1.000  1010.210825  460.078930  0.379199  0.000377  117709.708619  122058.915895  112129.361067  112878.730064
  7286.195  7286.190  1.000  1011.407586  460.186632  0.383037  -0.000226  117709.708619  122661.813308  112596.378505  112468.350625
  7288.774  7288.770  1.000  1008.170797  460.085474  0.386164  0.000215  117772.733644  121767.972226  112096.606909  112207.425893
  7291.393  7291.380  1.000  1009.719699  459.935476  0.388875  -0.000235  118176.271307  122091.545283  112096.606909  112041.486740
  7294.009  7294.000  1.000  1009.844558  459.660954  0.392400  -0.000285  117920.885621  121869.235423  112066.365354  112329.626450
  7296.653  7296.650  1.000  1008.688250  459.556687  0.394933  -0.000100  117739.078099  121884.270636  111955.858126  111970.223703
  7299.323  7299.310  1.000  1008.981967  459.243522  0.397488  0.000258  117594.002586  121909.452908  111982.011731  111882.965122
  7302.004  7301.990  1.000  1011.816582  456.583831  0.399441  0.000098  117548.263271  121759.493915  111281.375635  111389.958704
  7304.701  7304.690  1.000  1007.228030  459.533842  0.405181  0.000186  117311.675499  121469.242940  112208.851038  111865.597232
  7307.423  7307.410  1.000  1004.790884  459.151257  0.409298  0.000206  116566.446937  121535.964956  111573.720185  111674.865772
  7310.167  7310.150  1.000  1004.301165  458.886342  0.412216  -0.000173  117207.962569  120629.112145  111599.591934  111423.421346
  7312.916  7312.900  1.000  1007.833604  458.692759  0.414048  0.000021  117944.268765  121495.883337  111607.355489  111238.468739
  7315.696  7315.680  1.000  1009.068397  458.424418  0.417397  0.000081  117743.608030  121514.436409  111858.063837  111465.484397
  7318.486  7318.470  1.000  1010.929017  458.301095  0.419171  -0.000025  117919.694699  121330.163750  111755.284016  112304.732933
  7321.309  7321.290  1.000  1012.074914  458.180143  0.421086  0.000080  117963.291440  122124.464824  111430.349904  112194.522033
  7324.137  7324.120  1.000  1014.775093  457.855826  0.422600  0.000181  117831.185342  122483.702075  111580.178026  112725.623092
  7326.981  7326.970  1.000  1013.351936  457.671399  0.423261  -0.000180  117747.511525  122109.136192  112016.576263  111908.973654
  7329.868  7329.850  1.000  1018.954327  457.312865  0.425098  -0.000097  118603.938259  122559.109185  112617.207471  112200.667858
  7332.754  7332.740  1.000  1021.910571  457.181758  0.426048  -0.000117  118823.974114  122840.380451  113029.260914  112505.256222
  7335.666  7335.650  1.000  1022.493960  456.962033  0.428776  -0.000059  118293.214165  122863.247061  113022.818097  113061.639644
  7338.586  7338.570  1.000  1023.139118  456.710518  0.431356  -0.000133  118659.954703  123033.978834  112162.214015  113422.248783
  7341.513  7341.520  1.000  1030.180943  448.358887  0.426779  -0.000200  117629.930755  121198.243605  111340.766686  111721.839622
  7344.502  7344.490  1.000  1025.802800  455.747621  0.436242  -0.000099  118250.741391  122935.839517  113719.477807  112601.127089
  7347.465  7347.470  1.000  1025.662830  455.737768  0.439609  -0.000000  119257.326094  122441.005743  112897.716997  112837.239884
  7350.477  7350.480  1.000  1028.021441  455.526104  0.443400  -0.000075  119332.821139  122441.005743  113669.194487  112847.580396
  7353.483  7353.500  1.000  1027.988715  455.252634  0.446890  0.000210  119497.440512  122995.590109  112860.013666  112641.525422
  7356.544  7356.550  1.000  1029.076970  455.045696  0.450791  0.000188  118826.644556  123312.844849  113403.973429  112733.583368
  7359.601  7359.610  1.000  1031.281787  454.739257  0.454631  -0.000341  118760.268007  123312.844849  113330.430775  113560.769828
  7362.669  7362.690  1.000  1028.922661  454.479603  0.457074  -0.000015  118830.916696  122887.737182  112371.229956  113534.478423
  7365.784  7365.790  1.000  1031.956720  454.231172  0.458878  -0.000251  119027.535162  123636.440087  112716.407229  113366.527728
  7368.905  7368.910  1.000  1032.559006  453.841217  0.461560  -0.000046  119459.327288  123048.509093  113188.881753  112921.117934
  7372.044  7372.050  1.000  1035.243080  453.614584  0.464007  0.000014  119501.959349  124106.966571  113107.121188  112885.312324
  7375.192  7375.200  1.000  1035.644692  453.105722  0.466180  0.000084  119616.662761  123306.876565  113006.586405  113326.410709
  7378.372  7378.380  1.000  1038.134293  452.878643  0.467507  -0.000021  119090.094178  124175.820820  113302.550273  113580.384456
  7381.563  7381.570  1.000  1038.835657  452.589513  0.471290  -0.000072  119019.847547  124099.495695  113777.121186  113269.659729
  7384.785  7384.790  1.000  1040.033412  452.181066  0.475492  0.000122  119506.357541  123471.796433  113897.225058  113408.037659
  7388.024  7388.020  1.000  1038.950028  451.729203  0.477468  0.000236  119353.214283  123377.185140  113331.854720  113261.813491
  7391.269  7391.270  1.000  1040.643702  451.252413  0.480606  0.000237  119960.873159  123522.324980  112955.998576  113153.784902
  7394.537  7394.550  1.000  1042.240744  450.973719  0.483205  -0.000156  119510.360763  123251.424847  113486.898972  113774.499491
  7397.836  7397.840  1.000  1044.356179  450.580460  0.486978  0.000014  119714.862223  123792.826346  113743.235870  113315.562536
  7401.141  7401.150  1.000  1044.303327  450.329786  0.490105  0.000286  119588.189001  123841.306045  113656.525097  113194.873426
  7404.460  7404.470  1.000  1046.798705  449.857029  0.493581  0.000098  119703.528488  123488.465299  114368.961416  113348.800610
  7407.819  7407.820  1.000  1048.719254  449.366084  0.495825  0.000048  119354.261774  124212.325588  113758.648964  113933.627866
  7411.192  7411.190  1.000  1050.244149  448.936111  0.497699  -0.000082  120038.915963  123588.597000  113936.868030  113928.142753
  7414.562  7414.570  1.000  1051.813543  448.492946  0.501750  -0.000103  119891.956292  124078.155172  113924.661344  113836.181229
  7417.969  7417.980  1.000  1052.313200  447.974257  0.504206  0.000146  120198.214198  124146.424813  113780.973328  113283.611830
  7421.384  7421.400  1.000  1051.789441  447.491905  0.508700  0.000134  120198.214198  123852.941776  113041.316204  113574.788273
  7424.834  7424.850  1.000  1049.884193  447.049297  0.512393  0.000190  119882.810153  123230.974695  113121.882363  113114.323598
  7428.302  7428.310  1.000  1056.569017  446.664148  0.515451  0.000100  120049.814178  123884.202030  114204.446099  113793.037253
  7431.783  7431.790  1.000  1049.638487  446.174756  0.519687  0.000103  119200.918786  123384.350654  112564.238575  113172.687921
  7435.284  7435.290  1.000  1054.999414  445.730822  0.524000  0.000413  120397.717871  123594.159547  112937.131648  113316.746622
  7438.809  7438.810  1.000  1055.664010  445.260249  0.528618  0.000102  119404.924738  123454.335152  113395.695970  113790.264527
  7442.345  7442.350  1.000  1054.500640  444.478691  0.533075  0.000165  119592.884004  122966.661564  112831.799196  113311.719576
  7445.892  7445.900  1.000  1061.645109  433.571455  0.519565  0.000163  116833.083580  121165.651005  111054.675353  111245.604961
  7449.484  7449.480  1.000  1060.736731  443.805814  0.538344  0.000349  119430.644309  124521.701156  113842.878783  112965.903821
  7453.066  7453.080  1.000  1061.777576  442.053181  0.541386  0.000207  118903.506826  123746.550586  113193.032598  113519.065200
  7456.685  7456.690  1.000  1065.705683  442.501720  0.543974  0.000124  119881.389811  124670.216949  113759.872212  113265.118877
  7460.312  7460.320  1.000  1065.774351  442.306264  0.548050  0.000282  119881.389811  124248.043666  113605.663631  113663.574459
  7463.976  7463.980  1.000  1067.825825  441.452057  0.551401  0.000168  120105.869854  123723.653372  113910.199818  113654.184426
  7467.650  7467.650  1.000  1065.527640  433.949187  0.551366  0.000384  117687.242705  121477.772497  111130.719914  112089.118198
  7471.338  7471.340  1.000  1067.961204  441.682400  0.560195  0.000150  120147.580031  124022.995348  113501.125588  114027.966936
  7475.051  7475.050  1.000  1058.868501  441.005738  0.565103  0.000356  120312.251618  121987.896020  112273.259012  112393.677662
  7478.773  7478.780  1.000  1071.072977  440.624892  0.569441  0.000392  119826.935865  124568.059847  113827.204956  113719.214572
  7482.518  7482.520  1.000  1070.944957  439.930975  0.571981  0.000143  119826.935865  123973.209202  113579.492247  113762.221913
  7486.283  7486.290  1.000  1068.887778  439.414177  0.576029  0.000248  119745.089906  123131.875625  113358.745880  113448.731340
  7490.074  7490.080  1.000  1075.035787  438.727306  0.579247  0.000246  119647.482055  124605.168180  113710.625315  113684.279111
  7493.871  7493.880  1.000  1077.682818  437.925881  0.581799  0.000396  119933.284321  124309.501334  113580.623251  114121.788182
  7497.712  7497.710  1.000  1077.728401  437.255250  0.586122  0.000331  119987.662099  123809.097007  113631.252881  113814.389247
  7501.544  7501.550  1.000  1079.627445  436.633604  0.590707  0.000367  120479.529234  123245.624458  114003.240212  113673.227888
  7505.408  7505.410  1.000  1077.045606  435.889751  0.596038  0.000503  119080.774903  123646.462363  113129.276756  113616.626629
  7509.284  7509.290  1.000  1083.149503  435.103399  0.598050  0.000317  119655.270727  124317.901874  113943.416843  113365.440490
  7513.180  7513.190  1.000  1082.895934  434.287445  0.602195  0.000199  119586.561225  123494.382849  113959.917499  113247.246826
  7517.105  7517.110  1.000  1082.914222  433.626673  0.603812  0.000145  119840.640751  123937.858522  112716.977472  113085.014988
  7521.044  7521.050  1.000  1085.444597  432.906463  0.607537  0.000277  120559.899836  123278.952632  113270.579700  112786.549365
  7525.011  7525.010  1.000  1087.502035  432.226019  0.615387  0.000345  119398.509249  123926.131584  113183.957278  113538.077773
  7528.973  7528.980  1.000  1091.583205  431.470158  0.617926  0.000263  120379.579902  123463.459856  113425.374849  113717.163856
  7532.971  7532.980  1.000  1094.922905  430.816476  0.621036  0.000268  120043.851518  124293.255746  113714.879758  113658.840340
  7536.990  7536.990  1.000  1094.023362  429.929039  0.626749  0.000376  119231.051975  123473.919380  114119.714445  113527.726569
  7541.023  7541.030  1.000  1098.296109  429.402924  0.630684  0.000212  120367.046660  123564.675497  113627.932247  114051.906461
  7545.070  7545.080  1.000  1096.068797  428.714788  0.635134  0.000183  119735.497611  123583.474234  113001.398373  113580.531793
  7549.156  7549.150  1.000  1099.825203  428.093336  0.639983  -0.000054  119432.904750  123985.398412  113495.128540  113914.408762
  7553.244  7553.240  1.000  1103.254004  427.162648  0.644601  0.000240  119375.016560  124291.976167  113710.769042  113891.139694
  7557.346  7557.350  1.000  1103.185593  426.284102  0.648589  0.000284  119419.528563  123908.101466  113752.745934  113190.104199
  7561.484  7561.480  1.000  1104.018124  425.511099  0.653439  0.000294  119586.581295  123390.210302  113177.426218  113617.747227
  7565.630  7565.630  1.000  1107.380430  424.762321  0.658543  0.000124  120168.106101  123650.805861  113232.993216  113321.576611
  7569.778  7569.790  1.000  1108.281583  423.869017  0.663067  0.000361  119451.478184  124080.090712  113260.028041  112974.628671
  7573.975  7573.980  1.000  1111.133751  423.092145  0.669000  0.000403  119735.356687  123647.104526  113250.032048  113479.469149
  7578.176  7578.180  1.000  1109.251584  422.471940  0.673639  0.000624  119169.145320  123202.315615  113032.957158  113223.250151
  7582.412  7582.410  1.000  1114.088554  421.574618  0.676232  0.000297  119416.765161  123318.104076  113498.127775  113438.459924
  7586.645  7586.650  1.000  1113.193167  420.453043  0.681635  0.000232  118716.615292  123433.757499  113073.488562  112821.592747
  7590.915  7590.910  1.000  1114.685801  419.744608  0.687659  0.000222  118584.601199  123529.539191  112684.359321  113084.855072
  7595.178  7595.190  1.000  1119.300887  418.644618  0.692489  0.000577  119238.380723  123292.903968  113279.835723  112778.171729
  7599.480  7599.490  1.000  1121.458838  417.382157  0.693465  0.000453  119088.104579  123353.994325  112700.265163  112934.544207
  7603.802  7603.810  1.000  1122.825338  415.189586  0.697178  0.000313  118749.120814  122776.844360  112403.549253  112255.872888
  7608.151  7608.150  1.000  1126.371109  414.432769  0.702264  0.000540  118801.335386  123066.164582  112534.386751  112403.210640
  7612.511  7612.510  1.000  1127.814173  413.428698  0.707469  0.000593  118801.335386  122912.298243  112121.982664  112435.129274
  7616.880  7616.890  1.000  1125.285186  412.679884  0.713757  0.000424  118330.766709  122153.893558  111884.316263  112013.583530
  7621.280  7621.280  1.000  1128.832642  412.543011  0.717533  0.000493  118722.644659  122264.202379  112558.227397  112146.942688
  7625.692  7625.700  1.000  1134.332880  412.232167  0.723986  0.000333  119177.837943  123128.232700  112821.114114  112481.315892
  7630.114  7630.130  1.000  1133.472108  411.403516  0.727815  0.000408  118969.927778  122940.813334  111924.228055  112479.441683
  7634.572  7634.580  1.000  1134.874459  410.718435  0.731907  0.000521  118450.688119  122600.866133  112384.963491  112677.344073
  7639.035  7639.050  1.000  1134.648775  409.820486  0.735800  0.000563  118044.746610  122489.047853  111938.245186  112530.272303
  7643.531  7643.540  1.000  1139.185293  409.029387  0.741653  0.000595  118815.115719  122919.440070  112302.465431  111923.240588
  7648.052  7648.050  1.000  1142.760164  408.094380  0.745184  0.000517  118977.789904  123273.698436  112020.389706  112082.122812
  7652.574  7652.580  1.000  1145.530501  407.149418  0.754524  0.000728  118778.450431  122674.462259  112839.175848  112109.988487
  7657.126  7657.130  1.000  1146.741980  406.357415  0.758686  0.000789  118333.686784  122964.134539  112830.926563  111858.359202
  7661.697  7661.700  1.000  1147.743993  405.358878  0.762541  0.000528  118560.042878  122566.083841  111679.195489  112442.895034
  7666.263  7666.280  1.000  1150.498608  404.519821  0.768503  0.000560  118188.845048  122287.064850  113113.305456  111810.276074
  7670.872  7670.890  1.000  1151.964229  403.589066  0.773589  0.000773  118410.571598  122943.309051  111693.326197  111872.960630
