# XDI/1.0 BlueSky/1.11.0 BMM/2023-2.1-py310-tiled
# Beamline.name: BMM (06BM) -- Beamline for Materials Measurement (NIST)
# Beamline.xray_source: NSLS-II three-pole wiggler
# Beamline.collimation: paraboloid mirror, 5 nm Rh on 30 nm Pt
# Beamline.focusing: not in use
# Beamline.harmonic_rejection: flat mirror, Si stripe, pitch = 7.0 mrad relative to beam
# Beamline.software: Bluesky 1.11.0, Ophyd 1.8.0, DataBroker 2.0.0b23, Python 3.10.8, 2023-2.1-py310-tiled
# Detector.I0: 10 cm N2
# Detector.I1: 25 cm N2
# Detector.I2: 25 cm N2
# Detector.fluorescence: SII Vortex ME4 (4-element silicon drift)
# Detector.deadtime_correction: Xspress3
# Element.symbol: Mn
# Element.edge: K
# Element.reference: Mn
# Element.reference_material: Mn metal powder
# Facility.name: NSLS-II
# Facility.energy: 3.0
# Facility.current: 400.1
# Facility.mode: top-off
# Facility.GUP: 315355
# Facility.SAF: 313563
# Facility.cycle: 2024-1
# Mono.name: Si(111)
# Mono.d_spacing: 3.1354173
# Mono.encoder_resolution: 0.0000050 deg/ct
# Mono.angle_offset: 16.0891518 deg
# Mono.scan_mode: pseudo channel cut
# Mono.scan_type: step
# Mono.direction: forward in energy
# Sample.name: Ca2Fe0.75Mn0.25FeSi5O14(OH)
# Sample.prep: PEG pellet
# Sample.x: 90.051 mm
# Sample.y: 81.516 mm
# Sample.SDD_position: 40.000 mm
# Scan.experimenters: XAS course 2024
# Scan.edge_energy: 6539.0
# Scan.start_time: 2024-03-21T10:50:45
# Scan.end_time: 2024-03-21T11:00:20
# Scan.transient_id: 5313
# Scan.uid: 0e591873-3d5a-4561-8663-dd8fece96319
# Scan.hdf5file: 2024/03/21/b30bf535-52d3-40f7-b9c4_000000.h5
# Scan.plot_hint: (Mn1+Mn2+Mn3+Mn4)/I0  --  ($8+$9+$10+$11)/$5
# Column.1: energy eV
# Column.2: requested_energy eV
# Column.3: measurement_time seconds
# Column.4: xmu 
# Column.5: I0 nA
# Column.6: It nA
# Column.7: Ir nA
# Column.8: Mn1 
# Column.9: Mn2 
# Column.10: Mn3 
# Column.11: Mn4 
# ///////////
# Babingtonite, CM14452; Lane's Quarry, Westfield, Hampden County, Massachusetts
# -----------
# energy  requested_energy  measurement_time  xmu  I0  It  Ir  Mn1  Mn2  Mn3  Mn4
  6339.004  6339.000  1.000  3.002167  426.708916  0.201174  0.000886  434.793091  409.125929  182.053879  255.078717
  6349.008  6349.000  1.000  2.784577  427.493739  0.206533  0.000708  384.140858  394.121557  185.055431  227.071258
  6359.034  6359.000  1.000  2.769456  427.924246  0.212617  0.000892  400.876048  376.116149  177.052994  231.072155
  6369.021  6369.000  1.000  2.679249  428.382418  0.218741  0.001028  375.501610  374.117464  182.055566  216.068618
  6379.016  6379.000  1.000  2.712662  428.866784  0.224802  0.000995  391.125634  350.111690  192.059589  230.073701
  6389.012  6389.000  1.000  2.608308  429.254188  0.230850  0.000918  350.383776  357.113772  192.059462  220.070329
  6399.011  6399.000  1.000  2.557165  429.559061  0.237346  0.001205  343.212792  343.110095  193.059924  219.070653
  6409.009  6409.000  1.000  2.516320  429.763108  0.243778  0.001026  363.191253  355.114222  144.045045  219.071045
  6419.005  6419.000  1.000  2.319562  430.319767  0.250531  0.001097  353.944389  310.100779  143.045639  191.062549
  6429.010  6429.000  1.000  2.427670  430.400809  0.256829  0.000902  329.636611  314.103603  170.054247  231.076596
  6439.010  6439.000  1.000  2.423686  430.699958  0.263798  0.001241  339.649450  307.101754  198.063868  199.066381
  6449.003  6449.000  1.000  2.445618  429.217623  0.269556  0.001339  341.468331  311.103100  168.054349  229.076672
  6459.005  6459.000  1.000  2.388459  427.160866  0.273253  0.001389  340.030531  328.109740  154.049777  198.066271
  6468.950  6469.000  1.000  2.276399  431.218626  0.283987  0.001374  310.400390  314.105893  161.052316  196.067016
  6478.989  6479.000  1.000  2.441288  431.156655  0.291725  0.001569  363.344164  292.099350  170.055778  227.078339
  6488.985  6489.000  1.000  2.575749  431.319067  0.299937  0.001355  325.701703  348.119579  180.059393  257.089011
  6498.993  6499.000  1.000  2.607683  431.688701  0.307430  0.001611  343.438354  339.117436  210.070174  233.081529
  6508.993  6509.000  1.000  2.621907  431.845250  0.315281  0.001712  308.972612  349.121114  223.075481  251.088741
  6510.987  6511.000  1.000  2.708492  431.861012  0.316578  0.001769  371.416388  349.121796  217.072272  232.081635
  6512.992  6513.000  1.000  2.780443  432.009186  0.318147  0.001731  352.885300  348.119710  242.080949  258.090855
  6514.985  6515.000  1.000  2.875293  432.119738  0.319262  0.001366  361.165438  349.121643  274.092441  258.091245
  6516.994  6517.000  1.000  2.939284  432.252070  0.320620  0.001709  405.210277  344.120429  259.088080  262.092706
  6518.992  6519.000  1.000  3.002389  432.130710  0.322528  0.001834  381.102742  361.127695  274.094237  281.099615
  6520.996  6521.000  1.000  3.242642  432.226359  0.324345  0.001691  396.200811  438.155392  276.094849  291.104234
  6522.992  6523.000  1.000  3.290109  432.180245  0.326050  0.001803  430.570645  403.143474  294.100748  294.105088
  6524.990  6525.000  1.000  3.478106  432.117006  0.327662  0.001787  430.570645  403.143474  294.100748  375.134097
  6526.999  6527.000  1.000  3.716524  432.145250  0.329267  0.001758  462.676002  454.161034  365.125398  324.115811
  6528.994  6529.000  1.000  4.144040  432.272644  0.330734  0.001635  481.893018  518.184247  373.128221  418.149688
  6529.284  6529.300  1.000  4.042761  432.277684  0.331053  0.001616  492.151480  497.177387  372.127673  386.138923
  6529.582  6529.600  1.000  4.075535  432.147299  0.331292  0.001508  471.778216  507.179066  377.129535  405.144804
  6529.885  6529.900  1.000  4.102038  432.037239  0.332320  0.001673  471.778216  507.179066  381.129437  412.146312
  6530.186  6530.200  1.000  4.229766  432.122927  0.332206  0.001610  500.310116  512.182516  403.138645  412.147596
  6530.488  6530.500  1.000  4.417064  432.046498  0.332357  0.001787  488.877412  586.207422  434.149098  399.143168
  6530.791  6530.800  1.000  4.436328  432.161230  0.331918  0.001568  540.722967  549.195493  401.137866  426.152611
  6531.089  6531.100  1.000  4.425231  432.011791  0.332647  0.001668  555.272539  521.185809  410.140879  425.152598
  6531.388  6531.400  1.000  4.435633  432.200103  0.332415  0.001568  540.598565  550.194115  422.144368  404.144052
  6531.688  6531.700  1.000  4.491899  431.938888  0.332813  0.001438  483.715862  622.220025  433.147254  401.142807
  6531.986  6532.000  1.000  4.558261  432.033575  0.333074  0.001729  550.822083  524.185758  422.145102  472.169019
  6532.289  6532.300  1.000  4.847035  432.475296  0.333083  0.001719  567.681073  611.218770  479.165612  438.157491
  6532.589  6532.600  1.000  4.861208  433.964155  0.334470  0.001629  579.047888  587.210280  473.162573  470.169344
  6532.891  6532.900  1.000  4.824417  433.786193  0.335104  0.001806  562.223716  590.210757  448.153801  492.177061
  6533.194  6533.200  1.000  4.888745  433.727154  0.335532  0.001447  568.831855  598.213069  490.170420  463.166312
  6533.494  6533.500  1.000  4.976682  433.783216  0.335485  0.001565  545.228435  603.215778  529.182999  481.173758
  6533.796  6533.800  1.000  5.081812  433.626865  0.336210  0.001612  579.030661  625.224080  506.176618  493.178809
  6534.098  6534.100  1.000  5.223373  433.792218  0.335906  0.001355  666.294428  607.215091  495.169776  497.179072
  6534.399  6534.400  1.000  5.199603  433.785743  0.336223  0.001433  594.926282  635.225886  499.172146  526.189264
  6534.699  6534.700  1.000  5.220440  433.739940  0.336689  0.001515  587.722563  643.228636  531.181638  502.180673
  6534.999  6535.000  1.000  5.611474  433.924279  0.336349  0.001389  665.326996  675.241466  556.191351  538.194975
  6535.298  6535.300  1.000  5.832715  433.930574  0.336552  0.001671  665.326996  662.237296  595.208629  608.220549
  6535.596  6535.600  1.000  5.903295  433.862877  0.336725  0.001646  677.550843  700.249236  595.208629  588.212007
  6535.894  6535.900  1.000  6.063152  433.773885  0.337411  0.001279  655.329018  744.268625  634.222525  596.217031
  6536.200  6536.200  1.000  6.247670  433.789687  0.337545  0.001532  695.454170  775.280089  648.225226  591.215129
  6536.502  6536.500  1.000  6.626622  433.833003  0.337519  0.001313  798.105176  784.282008  676.236683  616.223405
  6536.800  6536.800  1.000  6.614569  433.722340  0.337826  0.001030  713.115329  804.289041  685.239106  666.242796
  6537.102  6537.100  1.000  6.924191  433.803995  0.337860  0.001041  811.958567  832.299909  677.236077  682.247162
  6537.404  6537.400  1.000  7.094385  433.832293  0.337925  0.000813  811.958567  852.309996  725.253495  688.251350
  6537.704  6537.700  1.000  7.664044  433.653618  0.338397  0.000558  866.660980  924.334205  747.260412  785.284794
  6538.003  6538.000  1.000  8.417475  433.624943  0.338720  0.000492  917.043358  1015.369264  917.321729  800.292668
  6538.303  6538.300  1.000  9.558264  433.640845  0.338702  0.000366  1116.765935  1128.408893  983.345561  916.333306
  6538.602  6538.600  1.000  10.926292  433.374936  0.339183  0.000054  1197.903648  1292.471429  1108.388200  1136.417720
  6538.899  6538.900  1.000  12.194986  433.498174  0.339338  0.000210  1370.083693  1414.517678  1299.460156  1202.442485
  6539.197  6539.200  1.000  13.079040  433.554845  0.339105  -0.000056  1436.926669  1562.579307  1330.476062  1340.499186
  6539.496  6539.500  1.000  13.827173  433.722400  0.338907  -0.000022  1517.515878  1586.583803  1406.500469  1486.554505
  6539.798  6539.800  1.000  14.323461  433.720968  0.338905  -0.000042  1561.678148  1699.631052  1509.539851  1441.536379
  6540.100  6540.100  1.000  14.604860  433.721391  0.339183  -0.000209  1561.678148  1721.640902  1565.565249  1485.555804
  6540.401  6540.400  1.000  14.053558  433.570331  0.339352  -0.000116  1500.521613  1651.610084  1517.542067  1423.531957
  6540.707  6540.700  1.000  13.266267  433.622978  0.339882  -0.000014  1479.000300  1563.577273  1425.504434  1284.476092
  6541.004  6541.000  1.000  13.208365  433.397749  0.340394  -0.000026  1462.918612  1594.589639  1396.498115  1270.469217
  6541.303  6541.300  1.000  12.991098  433.449581  0.340294  -0.000158  1359.414635  1561.581142  1336.477558  1373.512528
  6541.596  6541.600  1.000  13.926522  433.582103  0.340596  -0.000024  1520.639211  1626.599402  1477.526204  1413.526027
  6541.897  6541.900  1.000  14.723652  433.392639  0.340931  -0.000166  1604.373809  1712.634724  1575.560842  1488.553129
  6542.194  6542.200  1.000  15.301474  433.567192  0.340403  0.000083  1604.373809  1712.634724  1751.627150  1565.581302
  6542.504  6542.500  1.000  17.046241  433.648959  0.340387  0.000131  1935.076007  1876.698695  1853.662895  1726.647192
  6542.804  6542.800  1.000  19.103184  433.633544  0.340318  -0.000029  2018.448516  2243.843994  2095.760973  1925.728023
  6543.105  6543.100  1.000  20.991942  433.507322  0.340529  -0.000080  2303.630496  2468.927329  2235.808498  2091.794178
  6543.404  6543.400  1.000  24.616626  433.586515  0.340020  0.000064  2603.405993  2932.109987  2690.986956  2446.934181
  6543.705  6543.700  1.000  27.321811  433.639070  0.339761  -0.000167  2946.422248  2932.109987  3056.142848  2913.129788
  6544.002  6544.000  1.000  34.302312  433.589687  0.339936  -0.000131  3686.798677  3973.553113  3649.377233  3563.399841
  6544.300  6544.300  1.000  41.564511  433.552849  0.338828  -0.000016  4447.033735  4752.906272  4585.768908  4234.703361
  6544.597  6544.600  1.000  51.415111  433.524875  0.337971  0.000194  5386.889651  5920.413086  5641.225187  5341.201449
  6544.898  6544.900  1.000  62.867927  433.579391  0.337053  -0.000184  6646.701156  7151.994451  6952.804508  6506.737310
  6545.195  6545.200  1.000  76.837136  433.566941  0.335318  -0.000380  8071.183801  8909.850615  8360.530661  7972.477006
  6545.500  6545.500  1.000  93.951443  433.443844  0.333659  -0.000022  9762.761570  10865.916148  10476.649287  9617.347774
  6545.799  6545.800  1.000  107.159938  433.475658  0.331369  -0.000210  11564.178088  12954.062501  12315.636266  9617.347774
  6546.104  6546.100  1.000  128.164219  433.321798  0.329374  -0.000363  13554.969884  14620.167720  14084.716667  13276.495377
  6546.405  6546.400  1.000  143.835952  433.456074  0.327058  -0.000172  14827.950368  16676.358816  15939.770858  14902.487029
  6546.706  6546.700  1.000  157.348859  433.525750  0.325093  -0.000103  16277.130983  18309.473550  17303.705950  16324.471607
  6546.998  6547.000  1.000  169.106445  433.426369  0.323568  -0.000269  17643.976536  19495.336671  18545.527326  17610.351782
  6547.303  6547.300  1.000  179.778028  433.375643  0.322527  -0.000264  18721.776280  20847.195987  19825.468866  18516.977205
  6547.596  6547.600  1.000  188.371356  433.313846  0.321273  -0.000217  19553.211938  21763.859671  20888.244694  19418.600642
  6547.902  6547.900  1.000  197.572971  433.418966  0.319567  -0.000293  20437.663503  23017.843957  21828.960938  20347.404496
  6548.198  6548.200  1.000  205.093461  433.387471  0.318676  -0.000251  21206.843932  23855.541001  22655.594278  21166.957246
  6548.503  6548.500  1.000  212.460111  433.402019  0.317962  -0.000306  22090.721992  24695.213948  23379.126830  21915.578479
  6548.804  6548.800  1.000  218.808518  433.260583  0.317367  -0.000201  22590.158299  25540.881075  24039.867735  22630.199098
  6549.100  6549.100  1.000  227.768284  433.358559  0.316458  -0.000251  23465.081249  26509.599574  25440.937686  23289.716806
  6549.402  6549.400  1.000  239.235954  433.459372  0.314939  -0.000383  24850.976666  27900.696474  26487.711890  24459.681351
  6549.705  6549.700  1.000  253.761083  433.484936  0.312995  -0.000080  26194.051043  29492.306243  28287.218475  26028.031032
  6550.005  6550.000  1.000  269.938114  433.229476  0.311606  -0.000256  27793.796279  31580.037929  29827.741938  27743.571437
  6550.301  6550.300  1.000  289.496623  433.395406  0.308843  -0.000215  29866.282782  33510.879253  32418.001652  29671.342799
  6550.599  6550.600  1.000  305.773069  433.491203  0.306689  -0.000213  31541.206144  35486.849825  34008.677471  31513.202138
  6550.902  6550.900  1.000  320.253824  433.483653  0.304519  -0.000297  33120.373687  37149.453412  35689.383943  32865.586523
  6551.202  6551.200  1.000  333.452438  433.449352  0.302540  -0.000383  34408.758604  38562.044044  37255.898040  34308.042281
  6551.503  6551.500  1.000  337.777234  433.404153  0.301691  -0.000113  34765.432282  39087.634469  37752.406934  34788.582112
  6551.800  6551.800  1.000  337.603898  433.286872  0.301470  -0.000206  34766.866908  39158.634248  37198.079642  35155.756309
  6552.103  6552.100  1.000  330.040062  433.154256  0.302564  -0.000058  34107.314881  38308.856424  36464.325908  34077.760355
  6552.398  6552.400  1.000  319.321792  433.181553  0.303972  -0.000252  32962.215165  37117.428686  35325.146125  32919.519479
  6552.701  6552.700  1.000  308.429113  433.139245  0.306240  -0.000414  32071.301254  35953.263509  34005.967691  31562.220520
  6553.001  6553.000  1.000  297.457066  433.279335  0.307579  -0.000415  30610.162792  34446.810678  33022.689772  30802.336526
  6553.303  6553.300  1.000  288.150691  433.344596  0.309417  -0.000170  29913.706931  33067.524892  32133.901953  29753.410804
  6553.599  6553.600  1.000  281.537984  433.182858  0.310893  -0.000561  28899.349482  33067.524892  31075.900671  28914.653615
  6553.899  6553.900  1.000  272.150379  433.254715  0.312136  -0.000323  28263.507669  31456.066611  30438.193234  27752.667394
  6554.199  6554.200  1.000  269.755018  433.145990  0.312891  -0.000165  27959.204819  31097.663052  30033.769278  27752.667394
  6554.499  6554.500  1.000  267.737369  433.030091  0.314157  -0.000406  27870.002015  30924.502538  29409.309181  27734.523411
  6554.798  6554.800  1.000  265.400439  433.177807  0.314570  -0.000365  27316.525596  30803.475112  29511.402252  27334.177184
  6555.107  6555.100  1.000  263.628591  433.196092  0.314723  -0.000506  27206.232303  30707.361375  29465.375393  26823.906147
  6555.403  6555.400  1.000  265.080455  433.101455  0.315551  -0.000021  27289.007383  30858.396045  29438.322092  27221.005006
  6555.707  6555.700  1.000  264.105141  433.163070  0.315291  -0.000037  27223.747679  30798.392208  29317.346110  27061.107739
  6556.002  6556.000  1.000  266.423372  433.049980  0.315545  -0.000135  27560.467290  31069.574609  29578.440728  27166.153434
  6556.301  6556.300  1.000  267.188471  433.047269  0.315843  -0.000249  27740.945287  30985.550333  29565.406732  27413.335211
  6556.595  6556.600  1.000  263.264441  433.157915  0.316028  -0.000316  27312.629404  30538.233743  29421.399824  26762.813447
  6556.898  6556.900  1.000  257.747629  433.182418  0.316396  -0.000351  26536.970627  29979.702838  28438.471576  26696.595982
  6557.196  6557.200  1.000  252.151282  432.986107  0.317555  -0.000242  26212.794979  29212.101644  27974.203831  25778.901435
  6557.504  6557.500  1.000  243.151005  433.156520  0.318830  -0.000329  25159.091595  28333.251763  26922.026725  24908.073160
  6557.802  6557.800  1.000  237.315635  432.901313  0.320681  -0.000077  25159.091595  27452.391136  26178.428625  23944.338806
  6558.108  6558.100  1.000  230.495685  432.883136  0.322191  -0.000163  23740.878296  27452.391136  25082.585562  23501.839682
  6558.405  6558.400  1.000  219.873383  432.989558  0.323439  0.000040  22601.765006  25510.858162  24432.056716  22658.199002
  6558.702  6558.700  1.000  216.490338  433.036996  0.323688  0.000049  22306.227740  25510.858162  23816.487312  22114.752506
  6559.001  6559.000  1.000  208.972016  432.942978  0.325312  -0.000420  21405.640301  24348.905051  23133.055174  21585.366289
  6559.298  6559.300  1.000  204.197048  433.074558  0.325945  -0.000668  21012.530395  23846.532907  22533.571231  21039.912041
  6559.598  6559.600  1.000  200.169042  433.068473  0.326810  -0.000119  20593.998011  23194.020833  22175.221628  20723.660976
  6559.902  6559.900  1.000  194.645011  432.895642  0.328185  -0.000158  20130.332647  22428.478084  21550.879415  20151.286765
  6560.201  6560.200  1.000  190.047363  432.698052  0.328732  -0.000129  19562.785395  21985.119297  21143.424615  19541.794427
  6560.504  6560.500  1.000  187.603968  432.087334  0.329857  -0.000204  19277.722049  21798.964634  20588.041396  19396.570189
  6560.804  6560.800  1.000  185.665172  432.082751  0.329944  -0.000116  18998.629477  21495.679678  20598.036972  19130.372037
  6561.105  6561.100  1.000  183.639463  432.008756  0.330293  -0.000232  18904.223840  21332.564650  20305.873062  18791.194485
  6561.402  6561.400  1.000  181.843853  432.603566  0.330577  -0.000564  18781.166748  21069.335829  20083.681785  18732.114900
  6561.703  6561.700  1.000  182.093745  432.753600  0.331506  -0.000451  18867.281845  21187.545623  20161.762881  18585.133338
  6562.000  6562.000  1.000  181.881222  432.815218  0.331800  -0.000336  18715.590666  21190.458476  20394.901103  18420.010381
  6562.303  6562.300  1.000  182.806200  432.641649  0.332508  -0.000176  18796.988128  21094.402315  20571.041021  18627.144136
  6562.604  6562.600  1.000  180.752354  432.801925  0.332403  -0.000355  18531.744392  20920.372053  20168.704820  18609.145268
  6562.903  6562.900  1.000  182.359091  432.800102  0.332909  -0.000257  18872.303432  21253.641151  20146.889674  18652.198816
  6563.202  6563.200  1.000  182.846984  433.696076  0.334037  -0.000347  19059.300480  21281.639727  20168.840276  18790.239063
  6563.503  6563.500  1.000  183.308824  434.222534  0.334228  -0.000321  19027.969251  21328.652376  20154.745027  19085.455279
  6563.806  6563.800  1.000  185.056421  434.179225  0.334208  -0.000098  19150.376959  21693.836700  20338.914653  19164.525425
  6564.002  6564.000  1.000  184.668354  434.281645  0.333986  -0.000273  19223.949833  21590.789921  20487.026915  18896.310090
  6565.012  6564.990  1.000  187.161531  434.263037  0.335151  0.000024  19301.329241  21678.961909  21098.416647  19198.626948
  6565.990  6565.990  1.000  189.742325  434.170183  0.335126  -0.000178  19662.791750  21988.229853  21134.532616  19594.905573
  6567.011  6567.010  1.000  192.458280  434.085443  0.335628  -0.000141  20230.327639  22330.396999  21379.671193  19602.942146
  6568.068  6568.060  1.000  196.021876  434.229417  0.335844  -0.000446  20194.134747  22701.778547  21775.038089  20447.513514
  6569.121  6569.120  1.000  198.454398  434.086674  0.336614  -0.000394  20512.633967  23086.966506  22051.234057  20495.575163
  6570.208  6570.200  1.000  195.686588  434.271873  0.337302  -0.000377  20338.173567  23043.900552  21574.918826  20024.188044
  6571.313  6571.300  1.000  189.296073  434.273635  0.338964  -0.000122  19666.911090  22015.179898  21032.385649  19491.817012
  6572.425  6572.420  1.000  184.902680  434.271319  0.341403  -0.000431  19666.911090  22015.179898  20187.803026  18428.036857
  6573.573  6573.560  1.000  172.270428  434.270532  0.343641  -0.000346  17832.572232  20172.811114  19085.039234  17721.547730
  6574.723  6574.710  1.000  165.974439  434.271319  0.345548  -0.000467  17259.992167  19188.175489  18566.693696  17063.077154
  6575.900  6575.890  1.000  163.184200  434.225676  0.347062  -0.000008  16968.377344  18939.008556  18197.475450  16753.908286
  6577.087  6577.080  1.000  160.461055  434.246258  0.348445  -0.000173  16699.727938  18331.686234  17975.318205  16672.880416
  6578.315  6578.300  1.000  160.098884  434.312376  0.349827  0.000101  16617.122429  18562.820196  17928.317819  16424.666498
  6579.539  6579.530  1.000  160.925868  434.235680  0.350776  -0.000298  16716.666568  18935.086958  17658.190229  16569.809777
  6580.790  6580.780  1.000  160.876185  434.369782  0.351271  -0.000134  16716.666568  18935.086958  17658.190229  16569.809777
  6582.057  6582.050  1.000  169.319445  434.390240  0.351535  -0.000251  17484.700887  19689.580935  18747.942998  17628.489661
  6583.345  6583.340  1.000  172.812592  434.427671  0.351687  -0.000087  17974.733186  19689.580935  19488.470452  17921.787338
  6584.655  6584.650  1.000  181.785058  434.352219  0.352123  -0.000356  18794.713681  21204.684576  20057.902000  18901.443311
  6585.993  6585.980  1.000  188.778129  434.363128  0.351787  -0.000571  19698.635602  21730.152860  21123.570466  19445.899455
  6587.332  6587.330  1.000  195.580336  433.605971  0.351330  -0.000215  20257.473224  22583.728754  21808.147443  20155.451854
  6588.708  6588.700  1.000  202.888918  434.315319  0.351654  -0.000243  21111.344528  23597.557977  22438.801370  20970.061487
  6590.090  6590.080  1.000  210.577837  434.313841  0.351513  -0.000261  21748.580750  24682.400638  23449.360015  21576.527905
  6591.499  6591.490  1.000  214.618041  434.325947  0.352233  -0.000275  22182.582507  25209.807295  23753.799806  22067.994221
  6592.919  6592.910  1.000  218.116198  434.221346  0.353327  -0.000044  22671.257948  25593.179315  24060.036662  22386.235057
  6594.359  6594.350  1.000  220.187553  434.251360  0.354035  -0.000342  22798.563468  25576.179463  24695.599768  22546.401616
  6595.821  6595.810  1.000  220.439731  434.297868  0.355291  -0.000253  22980.469862  25688.263324  24512.343435  22555.428410
  6597.296  6597.290  1.000  216.180831  434.358005  0.357060  -0.000268  22666.826597  25128.880695  23854.938179  22249.229148
  6598.797  6598.790  1.000  213.494753  434.445679  0.358584  -0.000124  22666.826597  24749.635697  23712.696490  21622.713919
  6600.319  6600.310  1.000  208.261195  434.420583  0.359863  -0.000339  21568.972515  24179.064357  22957.232584  21767.680251
  6601.859  6601.850  1.000  205.259631  433.655412  0.361366  -0.000479  21411.844803  23842.872677  22572.923879  21184.308380
  6603.418  6603.410  1.000  204.604650  434.308430  0.363163  -0.000120  21124.363185  23786.882917  22866.002787  21084.275297
  6604.992  6604.980  1.000  203.846575  434.276766  0.364864  -0.000339  20994.914310  23748.806369  22551.849232  21230.261304
  6606.583  6606.580  1.000  202.855652  434.341184  0.365993  0.000007  21119.885773  23462.622399  22562.895010  20963.161024
  6608.201  6608.190  1.000  205.076453  434.282004  0.367682  -0.000242  21436.832036  23720.862472  22656.947347  21246.370998
  6609.840  6609.830  1.000  205.582029  434.337028  0.369084  -0.000064  21511.530010  23720.862472  22656.947347  21402.547544
  6611.491  6611.480  1.000  205.863552  434.328740  0.370088  -0.000291  21229.776093  24027.012554  22797.132037  21358.536426
  6613.156  6613.150  1.000  206.905772  434.437060  0.371252  -0.000030  21221.556178  24287.234141  23085.325462  21293.419686
  6614.849  6614.840  1.000  206.716378  434.356215  0.373073  -0.000026  21495.756030  24088.098463  23041.250482  21163.438579
  6616.558  6616.550  1.000  203.812962  434.400549  0.374893  -0.000475  21334.256163  23525.814064  22713.109189  20963.283206
  6618.290  6618.280  1.000  203.064465  434.284621  0.376648  -0.000175  21047.908382  23734.850769  22454.862179  20950.152692
  6620.042  6620.030  1.000  201.127448  434.354884  0.378307  -0.000343  21027.387725  23548.726553  22121.603540  20662.971641
  6621.796  6621.790  1.000  198.126103  434.250856  0.380774  -0.000244  20511.945078  23057.268593  22047.418517  20419.797569
  6623.588  6623.580  1.000  196.687275  434.381598  0.382257  -0.000110  20544.101518  22843.139659  21908.454990  20141.636609
  6625.385  6625.380  1.000  195.833916  434.232365  0.384156  -0.000198  20254.134452  22795.229781  21954.522344  20033.537846
  6627.223  6627.210  1.000  195.566597  434.397090  0.385234  -0.000247  20017.447216  22978.211035  21924.364278  20033.537846
  6629.058  6629.050  1.000  196.451087  433.647780  0.386890  -0.000104  20386.459223  22922.206056  21924.424604  19957.487810
  6630.917  6630.910  1.000  195.807410  434.252010  0.389257  -0.000067  20292.477852  22881.241374  21757.440393  20098.601697
  6632.799  6632.790  1.000  195.921111  434.174816  0.391153  -0.000164  20393.868601  22653.116154  21615.209383  20401.818294
  6634.692  6634.690  1.000  197.371996  434.246509  0.392622  -0.000235  20414.377647  22851.308602  22127.619691  20314.794039
  6636.622  6636.610  1.000  197.231272  434.225369  0.394227  -0.000109  20468.285063  22870.222705  22169.651422  20134.662782
  6638.560  6638.550  1.000  198.045362  434.161272  0.395775  -0.000341  20430.828652  23176.404943  22082.596498  20293.796308
  6640.518  6640.510  1.000  199.093405  434.207711  0.397082  -0.000340  20580.499412  23268.622906  22070.724358  20528.044862
  6642.489  6642.480  1.000  200.720357  434.181530  0.399105  -0.000361  20684.365513  23597.861974  22326.803339  20540.040860
  6644.485  6644.480  1.000  201.850856  433.974554  0.400894  -0.000109  20934.303387  23597.861974  22720.019742  20345.950225
  6646.495  6646.490  1.000  203.478995  434.116106  0.402282  -0.000488  21190.107827  23647.969447  22648.166263  20847.265521
  6648.532  6648.520  1.000  202.023739  433.934389  0.404355  -0.000424  20967.899750  23661.018562  22370.918680  20665.210847
  6650.587  6650.580  1.000  203.899085  433.950141  0.406249  -0.000230  21257.515103  23758.027036  22469.081815  20997.412916
  6652.655  6652.650  1.000  202.924184  433.937750  0.407677  -0.000180  21148.088806  23327.751710  22802.300617  20778.322617
  6654.750  6654.740  1.000  204.656411  433.985220  0.409012  -0.000142  21124.953085  23873.166337  22847.336311  20972.401538
  6656.854  6656.850  1.000  204.997907  434.028482  0.410531  -0.000106  21286.941951  23996.258277  22523.169895  21168.560398
  6658.982  6658.980  1.000  206.530549  433.915176  0.412594  -0.000202  21563.378653  23726.164817  23038.477545  21288.718446
  6661.129  6661.120  1.000  207.493877  433.807402  0.414524  -0.000013  21586.752954  24055.386625  23205.606063  21164.634262
  6663.301  6663.290  1.000  209.093622  433.792342  0.416167  -0.000285  21586.752954  24488.803175  23188.744585  21438.911350
  6665.487  6665.480  1.000  209.390919  433.516712  0.418540  -0.000471  21565.040884  24590.805817  23085.675413  21532.940793
  6667.690  6667.680  1.000  210.177879  433.634332  0.419552  -0.000358  21643.412154  24624.979375  23209.853418  21662.099106
  6669.910  6669.900  1.000  211.712578  433.705198  0.421196  -0.000067  21670.663905  24657.843714  23613.109756  21879.227943
  6672.159  6672.150  1.000  211.755000  433.548015  0.424279  -0.000277  22036.886104  24393.785988  23775.258952  21600.028902
  6674.418  6674.410  1.000  211.534306  433.638426  0.425449  -0.000344  21874.313860  24498.827303  23558.073925  21798.188211
  6676.691  6676.690  1.000  208.885628  433.406338  0.428224  -0.000516  21696.995632  23953.562868  23087.630684  21794.165890
  6678.999  6678.990  1.000  209.102046  433.381924  0.430561  -0.000585  21769.292383  24303.876403  23009.781457  21538.096813
  6681.315  6681.310  1.000  207.566167  433.207752  0.432745  -0.000150  21406.790237  23979.661765  22829.668158  21703.152145
  6683.654  6683.650  1.000  208.678386  433.295864  0.434809  -0.000201  21599.887093  24343.864059  22971.690877  21504.039546
  6686.005  6686.000  1.000  208.172989  433.270820  0.436551  -0.000280  21492.281923  24179.960746  23114.985759  21408.053327
  6688.388  6688.380  1.000  209.635855  433.254596  0.439128  -0.000279  21773.655294  24228.925624  23283.954402  21539.162348
  6690.779  6690.770  1.000  209.148739  433.168915  0.442225  -0.000344  21503.728824  24228.925624  23283.954402  21580.123447
  6693.196  6693.190  1.000  208.142442  432.972203  0.444950  -0.000225  21561.167638  23827.594104  23284.008278  21447.121652
  6695.625  6695.620  1.000  209.238634  432.531386  0.448278  -0.000267  21561.167638  24357.024935  23156.977589  21427.106192
  6698.083  6698.070  1.000  210.242623  432.607286  0.449715  -0.000584  21713.350202  24267.906562  23430.112287  21541.121270
  6700.561  6700.550  1.000  209.346053  432.331092  0.452184  -0.000266  21653.087307  24373.942445  23150.787198  21328.990723
  6703.055  6703.040  1.000  209.457066  432.230889  0.454983  -0.000334  21672.027535  24327.935224  23206.857722  21326.993505
  6705.559  6705.550  1.000  209.434647  432.317443  0.456397  -0.000464  21803.565596  23959.674702  23237.900368  21541.110493
  6708.079  6708.070  1.000  208.974683  432.116888  0.458609  -0.000387  21706.739915  24179.876367  23107.875160  21306.998369
  6710.632  6710.620  1.000  208.296058  431.976121  0.461639  -0.000086  21560.292643  24373.960432  22690.583186  21354.086887
  6713.203  6713.190  1.000  209.291437  431.719535  0.464443  -0.000243  21473.407605  24373.960432  22909.603759  21598.230031
  6715.788  6715.770  1.000  208.361001  431.465319  0.467495  -0.000400  21379.829283  23897.704556  23073.837994  21549.173853
  6718.395  6718.380  1.000  208.587213  431.407175  0.470608  -0.000463  21191.013147  24389.033095  22975.867983  21430.105884
  6720.999  6721.000  1.000  208.047966  431.112667  0.473274  -0.000072  21422.284466  24286.068291  22874.774368  21108.986547
  6723.668  6723.650  1.000  208.981640  431.176966  0.475409  -0.000076  21536.022551  24221.010669  23095.963279  21255.072967
  6726.308  6726.310  1.000  207.780000  430.914550  0.477491  -0.000319  21329.571565  23980.872937  23068.010105  21156.970579
  6728.987  6728.990  1.000  208.792285  430.553286  0.479655  -0.000433  21342.121039  23995.860636  22954.957225  21603.265520
  6731.686  6731.690  1.000  210.403318  430.338872  0.482884  -0.000408  21600.317833  24327.118392  22835.838269  21781.452260
  6734.408  6734.410  1.000  210.413904  431.375844  0.487384  -0.000181  21590.718461  24254.147928  23439.274263  21483.335010
  6737.149  6737.150  1.000  211.397560  431.063193  0.491524  -0.000126  21771.669755  24293.195090  23387.365435  21673.477145
  6739.898  6739.900  1.000  212.139692  430.747404  0.494022  -0.000300  21788.602496  24556.370446  23469.280215  21564.368596
  6742.675  6742.680  1.000  211.560736  430.700789  0.495733  -0.000087  21772.485615  24431.260070  23383.273480  21532.356556
  6745.460  6745.470  1.000  212.435984  430.379292  0.498486  -0.000336  22009.894247  24405.365008  23403.282476  21609.506788
  6748.288  6748.290  1.000  212.979126  430.063537  0.501699  -0.000125  21845.436763  24518.417181  23475.170530  21755.531704
  6751.120  6751.120  1.000  213.984752  429.921682  0.504049  -0.000244  22003.867072  24727.692503  23329.354298  21935.770765
  6753.970  6753.970  1.000  212.069264  429.651142  0.507003  -0.000255  21697.528537  24409.380656  23299.335536  21709.556568
  6756.849  6756.850  1.000  213.936016  429.328925  0.510503  -0.000190  22302.584373  24422.439561  23452.346718  21671.549088
  6759.737  6759.740  1.000  214.368839  428.894669  0.513311  -0.000153  22241.058108  24379.439499  23624.547444  21696.607334
  6762.656  6762.650  1.000  216.304043  428.549197  0.516224  -0.000193  22000.161427  24802.945504  23561.691047  22332.125944
  6765.564  6765.570  1.000  214.758820  428.474897  0.518099  -0.000516  21993.734615  24621.692636  23692.688321  21710.647620
  6768.520  6768.520  1.000  216.443464  428.153965  0.521737  -0.000307  22107.248438  24974.077687  23588.864562  22000.936530
  6771.492  6771.490  1.000  215.420736  427.639091  0.525249  -0.000076  22107.248438  24591.639668  23754.801656  21668.638006
  6774.478  6774.470  1.000  215.498006  427.468062  0.527780  -0.000234  21986.926863  24655.918786  23698.831360  21776.838128
  6777.490  6777.480  1.000  215.125012  427.013739  0.531612  -0.000135  22007.037936  24619.820697  23463.651622  21770.825327
  6780.499  6780.500  1.000  214.427572  426.814773  0.534798  -0.000102  21637.706354  24668.840479  23655.635484  21558.673085
  6783.548  6783.550  1.000  214.568851  426.323619  0.538642  -0.000396  21893.753018  24555.725179  23339.608007  21686.682706
  6786.611  6786.610  1.000  215.088273  426.105602  0.541338  -0.000312  21994.306699  24677.820025  23372.591547  21605.599951
  6789.691  6789.690  1.000  216.689063  425.506324  0.545256  -0.000362  21812.017987  24957.068296  23785.820686  21647.659709
  6792.786  6792.790  1.000  215.839922  421.312704  0.544714  -0.000223  21529.636346  24304.422675  23440.409150  21661.633055
  6795.909  6795.910  1.000  215.338180  423.076935  0.550827  0.000002  21682.779078  24672.785957  23378.566346  21370.485881
  6799.052  6799.050  1.000  216.849470  423.999036  0.554497  -0.000362  21878.416769  24637.864937  23523.755020  21903.929293
  6802.197  6802.200  1.000  216.301502  423.564874  0.559454  -0.000177  21878.416769  24541.787425  23523.755020  21673.759080
  6805.387  6805.380  1.000  216.714405  423.197121  0.562151  -0.000042  21976.340970  24579.946855  23463.812451  21692.812121
  6808.569  6808.570  1.000  216.317878  423.118539  0.564333  -0.000075  21753.644335  24574.867992  23620.861990  21578.730313
  6811.797  6811.790  1.000  219.572227  395.522654  0.536540  -0.000360  20978.553940  23225.013973  21858.807109  20783.414746
  6815.025  6815.020  1.000  216.033530  420.229016  0.568818  -0.000346  21600.771019  24323.602679  23269.510032  21589.674126
  6818.273  6818.270  1.000  217.857334  420.860643  0.574579  -0.000161  21593.780470  24660.948544  23613.938512  21818.910137
  6821.545  6821.550  1.000  217.705802  414.395653  0.577092  -0.000033  21482.081568  24206.431600  23105.378804  21422.446101
  6824.837  6824.840  1.000  218.179717  417.233007  0.579005  -0.000125  21657.822042  24547.833967  23301.508722  21524.614624
  6828.146  6828.150  1.000  218.059285  418.207139  0.585298  -0.000368  21657.822042  24547.833967  23301.508722  21686.784970
  6831.471  6831.470  1.000  218.242116  418.026434  0.588556  -0.000500  21779.799185  24235.664419  23353.603923  21861.905848
  6834.812  6834.820  1.000  219.431619  417.559988  0.591798  -0.000121  21862.275778  24564.970916  23405.638803  21792.978598
  6838.181  6838.190  1.000  219.108768  415.689974  0.593050  -0.000105  21838.502456  24516.758453  23114.372555  21611.684555
  6841.566  6841.570  1.000  220.952562  387.622627  0.552144  -0.000333  20530.389464  22810.774286  21949.930189  20355.118706
  6844.979  6844.980  1.000  219.760670  415.314739  0.601834  -0.000267  21900.738069  24380.679520  23381.710350  21606.717601
  6848.392  6848.400  1.000  220.984116  414.953142  0.607214  -0.000340  21917.408861  24747.090249  23466.764154  21566.790112
  6851.844  6851.850  1.000  220.701842  414.497895  0.610283  -0.000176  21812.010356  24650.019431  23372.677496  21645.741565
  6855.308  6855.310  1.000  221.751698  413.808609  0.615307  -0.000326  21848.993240  24570.998792  23604.865498  21737.904415
  6858.784  6858.790  1.000  220.787118  413.234455  0.618576  -0.000049  21815.409954  24408.923466  23271.635861  21740.875063
  6862.283  6862.290  1.000  220.852343  411.972447  0.620072  -0.000184  21748.860388  24367.810445  23586.824948  21281.584337
  6865.800  6865.810  1.000  222.873182  412.558722  0.627294  -0.000383  21842.263695  24703.195415  23659.887432  21742.928829
  6869.344  6869.350  1.000  221.872042  411.876944  0.631468  -0.000363  21660.154911  24379.950888  23557.905420  21785.967565
  6872.899  6872.900  1.000  224.116843  411.401601  0.634211  -0.000258  21755.656162  24820.298249  23801.006276  21825.067384
  6876.479  6876.480  1.000  223.205018  410.708026  0.638785  -0.000229  21923.138119  24546.132946  23502.873245  21699.948221
  6880.073  6880.080  1.000  222.067157  410.090973  0.643026  -0.000176  21818.991825  24324.980600  23427.958205  21495.805987
  6883.685  6883.690  1.000  223.724192  409.303509  0.649017  0.000009  21859.901779  24514.132444  23464.020532  21733.042027
  6887.323  6887.320  1.000  222.310913  408.951829  0.651494  -0.000275  21704.835347  24076.815458  23303.775507  21829.027916
  6890.973  6890.980  1.000  223.385785  408.095461  0.655177  -0.000351  21766.404207  24485.314871  23053.823648  21857.182343
  6894.647  6894.650  1.000  223.504899  407.421005  0.658874  -0.000243  21772.552039  24366.245280  23446.949521  21474.843794
  6898.336  6898.340  1.000  224.548223  406.708920  0.664706  -0.000255  21709.355105  24418.312654  23575.150315  21622.947108
  6902.048  6902.050  1.000  225.069099  406.100913  0.668527  0.000004  21814.420442  24674.431321  23447.083255  21464.831437
  6905.785  6905.780  1.000  224.902281  405.309644  0.673592  -0.000247  21572.651290  24232.211652  23629.162283  21721.038344
  6909.517  6909.520  1.000  225.190469  404.502693  0.679337  -0.000004  21572.651290  24503.388172  23266.007778  21748.103682
  6913.292  6913.290  1.000  226.711835  403.713494  0.681899  -0.000211  21936.312043  24401.285113  23285.822921  21903.206731
  6917.085  6917.080  1.000  226.491177  402.801829  0.686072  -0.000290  21914.802369  24287.189537  23588.170772  21440.897758
  6920.877  6920.880  1.000  227.012961  401.939373  0.690055  -0.000197  21824.310938  24240.102094  23601.028584  21580.005730
  6924.710  6924.710  1.000  227.282154  401.075143  0.695276  -0.000369  21603.999526  24452.225580  23502.049871  21598.947557
  6928.542  6928.550  1.000  227.506062  400.304692  0.698793  -0.000467  21600.328438  24612.447268  23298.938154  21560.030227
  6932.405  6932.410  1.000  229.170778  399.517303  0.702673  -0.000433  21885.106811  24385.320180  23417.013272  21870.250966
  6936.284  6936.290  1.000  229.260362  398.685643  0.709469  -0.000390  21885.106811  24465.429759  23363.099903  21689.178253
  6940.192  6940.190  1.000  227.536584  398.250109  0.715186  -0.000178  21481.231868  24456.383637  23298.979827  21379.873971
  6944.105  6944.110  1.000  229.102740  397.476417  0.719495  -0.000407  21623.181648  24526.526587  23045.939570  21867.288671
  6948.045  6948.050  1.000  229.482824  396.780709  0.724430  -0.000203  21691.884444  24640.519929  23344.070388  21377.882834
  6952.015  6952.010  1.000  230.905908  396.025762  0.727532  -0.000101  21630.643632  24566.574761  23509.254020  21738.215744
  6955.976  6955.980  1.000  231.444044  395.303488  0.731963  -0.000250  21630.643632  24566.574761  23516.202383  21777.217294
  6959.986  6959.980  1.000  230.653488  394.470908  0.736446  -0.000322  21416.343198  24502.502435  23405.087837  21662.157340
  6963.979  6963.990  1.000  231.967273  393.621762  0.741968  -0.000177  21713.848429  24497.393349  23197.893667  21898.231424
  6968.027  6968.030  1.000  232.222389  393.063611  0.747174  -0.000185  21651.560548  24642.515722  23440.111880  21543.982620
  6972.082  6972.080  1.000  232.363997  392.325778  0.751389  -0.000462  21668.800688  24547.466748  23175.923886  21770.194476
  6976.150  6976.150  1.000  234.224247  391.450723  0.757845  -0.000180  21918.564815  24519.420963  23440.070247  21809.195097
  6980.239  6980.240  1.000  232.304739  390.822980  0.762015  -0.000385  21401.505442  24234.257552  23305.995408  21848.271875
  6984.354  6984.350  1.000  234.394194  389.959061  0.769101  -0.000017  21628.236283  24664.628893  23353.037352  21758.237268
  6988.477  6988.480  1.000  232.934279  389.530005  0.772967  -0.000411  21575.194504  24496.575301  23249.102075  21414.018992
  6992.616  6992.630  1.000  233.749546  388.753184  0.777595  -0.000290  21746.386511  24228.371413  23357.072943  21539.049421
  6996.780  6996.790  1.000  233.952602  387.962274  0.782185  -0.000197  21530.826110  24343.577672  23414.234219  21476.145569
  7000.976  7000.980  1.000  235.223700  387.231786  0.787893  -0.000159  21398.082795  24405.486822  23484.226038  21798.297814
  7005.176  7005.180  1.000  233.999315  386.572027  0.792525  -0.000516  21461.116870  24080.240918  23284.041822  21632.189672
  7009.405  7009.410  1.000  235.043657  385.858547  0.798289  -0.000255  21770.158654  24275.415947  23194.982258  21453.046956
  7013.654  7013.650  1.000  236.885048  385.316788  0.805441  -0.000170  21500.180197  24567.811139  23385.360129  21822.434214
  7017.909  7017.910  1.000  236.684402  384.378771  0.810462  -0.000306  21582.339550  24464.657986  23365.252293  21564.209773
  7022.191  7022.190  1.000  237.424159  383.667396  0.814719  -0.000133  21637.946221  24585.701067  23267.076815  21601.184725
  7026.482  7026.490  1.000  237.480390  382.895681  0.820723  -0.000253  21601.030446  24346.584589  23422.331127  21560.269702
  7030.796  7030.810  1.000  237.863651  382.025932  0.826802  -0.000342  21330.976591  24434.581613  23730.473793  21374.050804
  7035.144  7035.150  1.000  238.676709  381.402290  0.830422  -0.000136  21881.843167  24347.589230  23339.220129  21463.190963
  7039.505  7039.510  1.000  237.541789  380.748053  0.835156  0.000060  21543.701764  24072.425820  23169.146580  21658.299659
  7043.893  7043.890  1.000  237.484678  380.139399  0.840632  -0.000052  21585.661354  24215.476816  23162.077104  21314.067588
  7048.276  7048.280  1.000  239.120922  379.392668  0.845706  -0.000332  21620.599068  24290.617515  23396.293905  21413.214129
  7052.701  7052.700  1.000  241.822244  378.787945  0.851328  -0.000131  21769.327437  24422.874069  23510.509630  21896.639858
  7057.127  7057.130  1.000  240.030404  378.106053  0.856595  -0.000125  21562.688115  24298.666455  23498.396484  21397.197613
  7061.576  7061.580  1.000  240.693092  376.482189  0.862233  -0.000123  21264.778440  24363.889353  23185.357442  21802.636966
  7066.046  7066.050  1.000  240.172578  376.948432  0.869717  -0.000065  21389.829355  24439.996490  23332.490773  21370.359851
  7070.528  7070.540  1.000  243.137211  373.076899  0.869739  -0.000003  21551.032762  24214.826277  23277.488008  21665.529484
  7075.045  7075.050  1.000  243.348175  372.169912  0.874030  -0.000275  21559.043620  24214.826277  23365.543092  21427.455803
  7079.573  7079.580  1.000  242.099876  374.808383  0.887979  -0.000500  21427.208698  24281.154636  23187.703624  21844.996083
  7084.132  7084.130  1.000  243.415004  373.691174  0.890697  -0.000404  21764.745054  24409.478407  23311.962325  21475.852739
  7088.696  7088.700  1.000  242.777911  373.657948  0.896425  -0.000264  21515.291424  24525.621046  23240.054272  21434.929200
  7093.278  7093.280  1.000  244.535702  372.926531  0.899059  -0.000122  21749.293133  24725.115165  23391.357912  21328.084861
  7097.892  7097.890  1.000  242.703727  372.395962  0.905247  -0.000241  21250.834969  24335.024649  23169.461366  21626.567114
